Time (s)	Motor Command (V)	Desired Position  (V)	Actual Position (V)
0.004	2.000	2.100	1.968
0.055	2.000	2.100	1.968
0.106	2.000	2.100	1.967
0.156	2.000	2.100	1.964
0.207	2.000	2.100	1.966
0.257	2.000	2.100	1.969
0.307	2.000	2.100	1.971
0.358	2.000	2.100	1.961
0.408	2.000	2.100	1.971
0.458	2.000	2.100	1.969
0.509	2.000	2.100	1.971
0.559	2.000	2.100	1.972
0.609	2.000	2.100	1.971
0.659	2.000	2.100	1.969
0.710	2.000	2.100	1.970
0.760	2.000	2.100	1.970
0.810	2.000	2.100	1.967
0.860	2.000	2.100	1.969
0.911	2.000	2.100	1.970
0.961	2.000	2.100	1.969
1.011	2.000	2.100	1.969
1.061	2.000	2.100	1.969
1.111	2.000	2.100	1.970
1.161	2.000	2.100	1.967
1.211	2.000	2.100	1.968
1.261	2.000	2.100	1.969
1.311	2.000	2.100	1.967
1.361	2.000	2.100	1.969
1.412	2.000	2.100	1.969
1.461	2.000	2.100	1.967
1.512	2.000	2.100	1.969
1.562	2.000	2.100	1.969
1.612	2.000	2.100	1.967
1.662	2.000	2.100	1.965
1.713	2.000	2.100	1.970
1.763	2.000	2.100	1.969
1.813	2.000	2.100	1.968
1.863	2.000	2.100	1.969
1.914	2.000	2.100	1.969
1.963	2.000	2.100	1.970
2.013	2.000	2.100	1.967
2.064	2.000	2.100	1.969
2.114	2.000	2.100	1.971
2.164	2.000	2.100	1.966
2.214	2.000	2.100	1.965
2.264	2.000	2.100	1.970
2.313	2.000	2.100	1.968
2.364	2.000	2.100	1.968
2.414	2.000	2.100	1.967
2.463	2.000	2.100	1.967
2.514	2.000	2.100	1.968
2.564	2.000	2.100	1.968
2.614	2.000	2.100	1.969
2.664	2.000	2.100	1.968
2.714	2.000	2.100	1.969
2.764	2.000	2.100	1.969
2.814	2.000	2.100	1.967
2.864	2.000	2.100	1.968
2.913	2.000	2.100	1.967
2.963	2.000	2.100	1.970
3.013	2.000	2.100	1.970
3.063	2.000	2.100	1.968
3.113	2.000	2.100	1.967
3.164	2.000	2.100	1.969
3.214	2.000	2.100	1.968
3.263	2.000	2.100	1.968
3.314	2.000	2.100	1.971
3.363	2.000	2.100	1.968
3.413	2.000	2.100	1.966
3.464	2.000	2.100	1.969
3.514	2.000	2.100	1.969
3.564	2.000	2.100	1.969
3.614	2.000	2.100	1.970
3.664	2.000	2.100	1.970
3.713	2.000	2.100	1.966
3.764	2.000	2.100	1.968
3.814	2.000	2.100	1.970
3.863	2.000	2.100	1.968
3.914	2.000	2.100	1.969
3.964	2.000	2.100	1.971
4.013	2.000	2.100	1.968
4.064	2.000	2.100	1.966
4.114	2.000	2.100	1.970
4.164	2.000	2.100	1.967
4.214	2.000	2.100	1.969
4.264	2.000	2.100	1.969
4.313	2.000	2.100	1.969
4.364	2.000	2.100	1.969
4.414	2.000	2.100	1.969
4.464	2.000	2.100	1.970
4.514	2.000	2.100	1.969
4.564	2.000	2.100	1.969
4.614	2.000	2.100	1.971
4.664	2.000	2.100	1.969
4.715	2.000	2.100	1.970
4.764	2.000	2.100	1.969
4.814	2.000	2.100	1.971
4.865	2.000	2.100	1.969
4.914	2.000	2.100	1.968
4.963	2.000	2.100	1.969
5.014	2.000	2.100	1.970
5.064	2.000	2.100	1.969
5.114	2.000	2.100	1.971
5.164	2.000	2.100	1.970
5.214	2.000	2.100	1.971
5.264	2.000	2.100	1.970
5.315	2.000	2.100	1.972
5.365	2.000	2.100	1.971
5.415	2.000	2.100	1.969
5.465	2.000	2.100	1.970
5.516	2.000	2.100	1.971
5.565	2.000	2.100	1.969
5.615	2.000	2.100	1.965
5.666	2.000	2.100	1.970
5.716	2.000	2.100	1.970
5.765	2.000	2.100	1.970
5.816	2.000	2.100	1.970
5.866	2.000	2.100	1.970
5.915	2.000	2.100	1.970
5.965	2.000	2.100	1.971
6.015	2.000	2.100	1.970
6.065	2.000	2.100	1.970
6.116	2.000	2.100	1.970
6.167	2.000	2.100	1.971
6.216	2.000	2.100	1.969
6.266	2.000	2.100	1.970
6.317	2.000	2.100	1.971
6.366	2.000	2.100	1.970
6.416	2.000	2.100	1.970
6.467	2.000	2.100	1.970
6.517	2.000	2.100	1.971
6.566	2.000	2.100	1.970
6.617	2.000	2.100	1.969
6.667	2.000	2.100	1.971
6.717	2.000	2.100	1.972
6.767	2.000	2.100	1.970
6.817	2.000	2.100	1.971
6.867	2.000	2.100	1.969
6.917	2.000	2.100	1.970
6.968	2.000	2.100	1.970
7.018	2.000	2.100	1.956
7.068	2.000	2.100	1.970
7.119	2.000	2.100	1.970
7.169	2.000	2.100	1.970
7.219	2.000	2.100	1.970
7.268	2.000	2.100	1.970
7.319	2.000	2.100	1.967
7.369	2.000	2.100	1.971
7.418	2.000	2.100	1.970
7.469	2.000	2.100	1.969
7.519	2.000	2.100	1.970
7.569	2.000	2.100	1.967
7.619	2.000	2.100	1.972
7.669	2.000	2.100	1.969
7.719	2.000	2.100	1.969
7.769	2.000	2.100	1.970
7.819	2.000	2.100	1.970
7.869	2.000	2.100	1.970
7.920	2.000	2.100	1.970
7.970	2.000	2.100	1.969
8.020	2.000	2.100	1.970
8.070	2.000	2.100	1.970
8.121	2.000	2.100	1.966
8.171	2.000	2.100	1.969
8.221	2.000	2.100	1.969
8.271	2.000	2.100	1.965
8.322	2.000	2.100	1.971
8.372	2.000	2.100	1.970
8.422	2.000	2.100	1.969
8.472	2.000	2.100	1.970
8.523	2.000	2.100	1.969
8.572	2.000	2.100	1.969
8.622	2.000	2.100	1.969
8.671	2.000	2.100	1.971
8.721	2.000	2.100	1.969
8.772	2.000	2.100	1.969
8.822	2.000	2.100	1.968
8.872	2.000	2.100	1.969
8.922	2.000	2.100	1.968
8.972	2.000	2.100	1.968
9.022	2.000	2.100	1.966
9.072	2.000	2.100	1.969
9.122	2.000	2.100	1.970
9.172	2.000	2.100	1.969
9.221	2.000	2.100	1.969
9.271	2.000	2.100	1.968
9.321	2.000	2.100	1.968
9.371	2.000	2.100	1.969
9.421	2.000	2.100	1.970
9.471	2.000	2.100	1.969
9.521	2.000	2.100	1.970
9.571	2.000	2.100	1.970
9.621	2.000	2.100	1.967
9.671	2.000	2.100	1.968
9.722	2.000	2.100	1.967
9.772	2.000	2.100	1.968
9.821	2.000	2.100	1.964
9.872	2.000	2.100	1.969
9.922	2.000	2.100	1.968
9.972	2.000	2.100	1.970
10.022	2.000	2.100	1.964
10.072	2.000	2.100	1.970
10.121	2.000	2.100	1.969
10.171	2.000	2.100	1.967
10.221	2.000	2.100	1.970
10.271	2.000	2.100	1.968
10.322	2.000	2.100	1.969
10.371	2.000	2.100	1.968
10.421	2.000	2.100	1.968
10.472	2.000	2.100	1.968
10.522	2.000	2.100	1.969
10.571	2.000	2.100	1.970
10.622	2.214	2.100	1.966
10.671	3.000	2.100	1.968
10.720	4.143	2.100	1.968
10.770	4.500	2.100	1.966
10.819	4.571	2.100	1.967
10.870	4.857	2.100	1.968
10.919	5.143	2.100	1.968
10.968	5.214	2.100	1.968
11.019	5.286	2.100	1.966
11.068	5.286	2.100	1.964
11.118	5.286	2.100	1.958
11.168	5.286	2.100	1.961
11.218	5.286	2.100	1.958
11.268	5.286	2.100	1.959
11.318	5.714	2.100	1.965
11.367	6.000	2.100	1.966
11.417	6.143	2.100	1.967
11.467	6.214	2.100	1.967
11.517	6.214	2.100	1.969
11.567	6.500	2.100	1.964
11.616	6.857	2.100	1.967
11.665	7.071	2.100	1.966
11.715	7.214	2.100	1.966
11.764	7.429	2.100	1.967
11.815	7.571	2.100	1.964
11.865	7.714	2.100	1.967
11.914	7.714	2.100	1.965
11.965	7.714	2.100	1.967
12.015	7.714	2.100	1.967
12.064	7.714	2.100	1.966
12.115	7.714	2.100	1.967
12.165	7.714	2.100	1.968
12.215	7.714	2.100	1.968
12.265	7.714	2.100	1.968
12.315	7.714	2.100	1.967
12.365	7.714	2.100	1.970
12.415	7.714	2.100	1.968
12.465	7.714	2.100	1.968
12.515	7.714	2.100	1.968
12.566	7.714	2.100	1.968
12.616	7.714	2.100	1.969
12.666	7.714	2.100	1.969
12.716	7.714	2.100	1.968
12.767	7.714	2.100	1.965
12.817	7.714	2.100	1.970
12.866	7.714	2.100	1.966
12.916	7.714	2.100	1.967
12.966	8.214	2.100	1.966
13.016	8.286	2.100	1.967
13.066	8.429	2.100	1.965
13.116	8.500	2.100	1.966
13.166	8.714	2.100	1.967
13.216	8.786	2.100	1.965
13.266	9.143	2.100	1.967
13.315	9.357	2.100	1.965
13.366	9.571	2.100	1.964
13.416	9.643	2.100	1.966
13.466	9.643	2.100	1.966
13.516	9.643	2.100	1.968
13.566	9.643	2.100	1.970
13.616	9.643	2.100	1.970
13.666	9.643	2.100	1.972
13.717	9.643	2.100	1.974
13.767	9.643	2.100	1.974
13.816	9.500	2.100	1.975
13.867	9.000	2.100	1.978
13.917	7.857	2.100	1.980
13.966	7.286	2.100	1.984
14.017	7.000	2.100	1.985
14.067	6.857	2.100	1.989
14.117	6.857	2.100	1.989
14.167	6.571	2.100	1.990
14.217	6.214	2.100	1.992
14.267	6.071	2.100	1.988
14.317	6.000	2.100	1.988
14.368	6.000	2.100	1.988
14.418	6.000	2.100	1.985
14.468	6.000	2.100	1.981
14.518	6.214	2.100	1.977
14.568	6.929	2.100	1.975
14.617	7.500	2.100	1.973
14.668	7.571	2.100	1.970
14.718	7.571	2.100	1.971
14.767	7.571	2.100	1.968
14.818	7.571	2.100	1.967
14.868	7.571	2.100	1.968
14.917	7.786	2.100	1.966
14.968	7.786	2.100	1.966
15.018	7.929	2.100	1.967
15.068	7.929	2.100	1.966
15.118	8.000	2.100	1.967
15.168	8.000	2.100	1.966
15.218	8.143	2.100	1.968
15.268	8.143	2.100	1.959
15.319	8.143	2.100	1.971
15.368	8.143	2.100	1.971
15.418	8.214	2.100	1.969
15.468	8.500	2.100	1.971
15.518	8.500	2.100	1.968
15.568	8.500	2.100	1.969
15.619	8.500	2.100	1.973
15.669	8.500	2.100	1.973
15.719	8.500	2.100	1.972
15.769	8.500	2.100	1.973
15.819	8.500	2.100	1.973
15.869	8.500	2.100	1.975
15.918	8.643	2.100	1.972
15.969	8.786	2.100	1.972
16.019	8.857	2.100	1.973
16.069	8.857	2.100	1.975
16.119	8.857	2.100	1.975
16.169	9.000	2.100	1.974
16.219	9.071	2.100	1.973
16.270	9.071	2.100	1.974
16.320	9.071	2.100	1.976
16.369	9.143	2.100	1.976
16.419	9.214	2.100	1.975
16.470	9.286	2.100	1.972
16.519	9.286	2.100	1.977
16.570	9.286	2.100	1.979
16.620	9.286	2.100	1.981
16.669	9.286	2.100	1.982
16.720	9.286	2.100	1.982
16.770	9.286	2.100	1.984
16.820	9.214	2.100	1.984
16.869	9.214	2.100	1.988
16.920	9.214	2.100	1.990
16.970	9.214	2.100	1.988
17.019	9.143	2.100	1.990
17.070	9.071	2.100	1.989
17.119	9.000	2.100	1.991
17.174	9.000	2.100	1.978
17.224	9.000	2.100	1.989
17.274	9.000	2.100	1.988
17.324	9.000	2.100	1.988
17.374	8.714	2.100	1.995
17.424	8.714	2.100	1.996
17.474	8.714	2.100	2.003
17.523	8.714	2.100	2.001
17.573	8.714	2.100	2.001
17.624	8.714	2.100	1.998
17.674	8.714	2.100	2.002
17.723	8.429	2.100	2.000
17.774	8.286	2.100	2.000
17.823	8.286	2.100	2.000
17.873	8.286	2.100	2.003
17.923	8.286	2.100	2.003
17.973	8.286	2.100	2.003
18.023	8.286	2.100	2.000
18.074	8.286	2.100	1.999
18.124	8.286	2.100	2.003
18.173	8.357	2.100	2.002
18.223	8.357	2.100	2.002
18.273	8.357	2.100	2.000
18.323	8.357	2.100	2.001
18.373	8.357	2.100	2.003
18.423	8.429	2.100	2.001
18.473	8.500	2.100	1.997
18.523	8.500	2.100	2.003
18.572	8.500	2.100	2.002
18.622	8.500	2.100	2.003
18.672	8.500	2.100	2.002
18.722	8.500	2.100	2.003
18.772	8.500	2.100	2.003
18.823	8.500	2.100	2.001
18.873	8.500	2.100	2.004
18.922	8.500	2.100	2.002
18.973	8.500	2.100	2.002
19.023	8.500	2.100	2.003
19.072	8.500	2.100	2.003
19.123	8.500	2.100	2.004
19.172	8.500	2.100	2.002
19.222	8.500	2.100	2.003
19.272	8.500	2.100	2.003
19.322	8.500	2.100	2.003
19.372	8.500	2.100	2.004
19.423	8.500	2.100	2.002
19.473	8.500	2.100	2.004
19.522	8.500	2.100	2.003
19.573	8.500	2.100	2.003
19.623	8.500	2.100	2.004
19.673	8.500	2.100	2.002
19.723	8.500	2.100	2.003
19.773	8.500	2.100	2.004
19.823	8.500	2.100	2.004
19.873	8.500	2.100	2.003
19.923	8.500	2.100	2.003
19.973	8.500	2.100	2.004
20.023	8.500	2.100	2.005
20.073	8.500	2.100	2.005
20.123	8.500	2.100	2.006
20.173	8.500	2.100	2.003
20.223	8.500	2.100	2.004
20.273	8.500	2.100	2.005
20.322	8.500	2.100	2.004
20.372	8.500	2.100	2.007
20.422	8.500	2.100	2.007
20.472	8.500	2.100	2.006
20.523	8.500	2.100	2.006
20.573	8.500	2.100	2.007
20.623	8.500	2.100	2.004
20.674	8.500	2.100	2.003
20.724	8.500	2.100	2.006
20.773	8.500	2.100	2.004
20.823	8.500	2.100	2.003
20.874	8.500	2.100	2.003
20.924	8.500	2.100	2.006
20.974	8.500	2.100	2.006
21.024	8.500	2.100	2.006
21.074	8.500	2.100	2.006
21.124	8.500	2.100	2.005
21.175	8.500	2.100	2.005
21.225	8.500	2.100	2.006
21.274	8.500	2.100	2.004
21.325	8.500	2.100	2.006
21.375	8.500	2.100	2.003
21.424	8.500	2.100	2.006
21.474	8.500	2.100	2.005
21.525	8.500	2.100	2.005
21.575	8.500	2.100	2.006
21.625	8.500	2.100	2.005
21.676	8.500	2.100	2.005
21.726	8.500	2.100	2.005
21.776	8.500	2.100	2.005
21.826	8.500	2.100	2.005
21.877	8.500	2.100	2.006
21.926	8.500	2.100	2.004
21.976	8.500	2.100	2.005
22.027	8.500	2.100	2.006
22.077	8.500	2.100	2.006
22.127	8.500	2.100	2.004
22.177	8.500	2.100	2.005
22.228	8.500	2.100	2.005
22.278	8.500	2.100	2.005
22.328	8.500	2.100	2.004
22.378	8.500	2.100	2.006
22.428	8.500	2.100	2.006
22.478	8.500	2.100	2.005
22.528	8.500	2.100	2.005
22.578	8.500	2.100	2.007
22.628	8.500	2.100	2.005
22.678	8.500	2.100	2.006
22.729	8.500	2.100	2.007
22.778	8.500	2.100	2.005
22.828	8.500	2.100	2.007
22.879	8.500	2.100	2.007
22.929	8.500	2.100	2.007
22.978	8.500	2.100	2.003
23.029	8.500	2.100	2.006
23.079	8.500	2.100	1.984
23.129	8.500	2.100	2.004
23.180	8.500	2.100	1.997
23.230	8.500	2.100	2.003
23.280	8.500	2.100	1.995
23.330	8.500	2.100	2.002
23.381	8.500	2.100	2.003
23.431	8.500	2.100	1.993
23.480	8.500	2.100	1.998
23.531	8.500	2.100	2.004
23.581	8.500	2.100	2.001
23.631	8.500	2.100	2.005
23.681	8.500	2.100	2.008
23.732	8.500	2.100	2.004
23.782	8.500	2.100	2.005
23.831	8.500	2.100	1.995
23.881	8.500	2.100	2.004
23.930	8.500	2.100	2.004
23.980	8.500	2.100	2.007
24.030	8.500	2.100	2.005
24.079	8.500	2.100	2.007
24.129	8.500	2.100	2.005
24.179	8.500	2.100	2.006
24.228	8.500	2.100	2.003
24.278	8.500	2.100	2.004
24.328	8.500	2.100	2.003
24.379	8.500	2.100	2.005
24.429	8.500	2.100	2.006
24.478	8.500	2.100	2.005
24.528	8.500	2.100	2.006
24.579	8.500	2.100	2.002
24.628	8.500	2.100	2.006
24.678	8.500	2.100	2.003
24.728	8.500	2.100	2.007
24.777	8.500	2.100	2.005
24.828	8.500	2.100	2.005
24.878	8.500	2.100	2.006
24.927	8.500	2.100	2.003
24.978	8.500	2.100	2.007
25.028	8.500	2.100	2.004
25.078	8.500	2.100	2.005
25.128	8.500	2.100	2.004
25.178	8.500	2.100	2.004
25.228	8.500	2.100	2.005
25.278	8.500	2.100	2.006
25.329	8.500	2.100	2.007
25.379	8.500	2.100	2.005
25.429	8.500	2.100	2.005
25.479	8.500	2.100	2.007
25.530	8.500	2.100	2.007
25.580	8.500	2.100	2.008
25.630	8.500	2.100	1.996
25.680	8.500	2.100	2.005
25.730	8.500	2.100	2.005
25.779	8.500	2.100	2.006
25.830	8.500	2.100	2.007
25.880	8.500	2.100	2.007
25.930	8.500	2.100	2.006
25.980	8.500	2.100	1.999
26.030	8.500	2.100	2.006
26.080	8.500	2.100	2.006
26.130	8.500	2.100	2.008
26.181	8.500	2.100	2.007
26.231	8.500	2.100	1.980
26.281	8.500	2.100	2.008
26.332	8.500	2.100	2.003
26.382	8.500	2.100	2.008
26.431	8.500	2.100	2.008
26.482	8.500	2.100	2.007
26.532	8.500	2.100	2.008
26.582	8.500	2.100	2.003
26.632	8.500	2.100	2.008
26.682	8.500	2.100	2.006
26.732	8.500	2.100	2.008
26.781	8.500	2.100	2.007
26.831	8.500	2.100	2.008
26.881	8.500	2.100	2.007
26.931	8.500	2.100	2.008
26.982	8.500	2.100	2.007
27.032	8.500	2.100	2.008
27.082	8.500	2.100	2.008
27.133	8.500	2.100	2.007
27.183	8.500	2.100	2.006
27.232	8.500	2.100	1.988
27.283	8.500	2.100	2.008
27.333	8.500	2.100	2.008
27.383	8.500	2.100	2.007
27.433	8.500	2.100	2.005
27.484	8.500	2.100	2.008
27.533	8.500	2.100	2.007
27.583	8.500	2.100	2.007
27.634	8.500	2.100	2.008
27.683	8.500	2.100	2.007
27.733	8.500	2.100	2.004
27.784	8.500	2.100	2.005
27.834	8.500	2.100	2.006
27.884	8.500	2.100	2.005
27.934	8.500	2.100	2.001
27.984	8.500	2.100	2.007
28.034	8.500	2.100	2.006
28.084	8.500	2.100	2.002
28.135	8.500	2.100	1.995
28.185	8.500	2.100	2.008
28.234	8.500	2.100	2.001
28.285	8.500	2.100	2.000
28.335	8.500	2.100	1.996
28.385	8.500	2.100	1.995
28.435	8.500	2.100	2.002
28.486	8.500	2.100	2.005
28.536	8.500	2.100	2.010
28.586	8.500	2.100	2.009
28.637	8.500	2.100	2.009
28.687	8.500	2.100	1.988
28.737	8.500	2.100	2.009
28.787	8.500	2.100	2.008
28.838	8.500	2.100	2.006
28.888	8.500	2.100	2.008
28.937	8.500	2.100	2.009
28.987	8.500	2.100	2.010
29.037	8.500	2.100	2.009
29.087	8.500	2.100	2.010
29.138	8.500	2.100	2.010
29.188	8.500	2.100	2.010
29.237	8.500	2.100	2.010
29.288	8.500	2.100	2.010
29.338	8.500	2.100	2.010
29.387	8.500	2.100	2.007
29.438	8.500	2.100	2.010
29.488	8.500	2.100	2.008
29.537	8.500	2.100	2.009
29.588	8.500	2.100	2.009
29.638	8.500	2.100	2.009
29.687	8.500	2.100	2.007
29.738	8.500	2.100	2.010
29.788	8.500	2.100	2.003
29.837	8.500	2.100	2.007
29.887	8.500	2.100	1.996
29.937	8.500	2.100	1.997
29.987	8.500	2.100	2.004
30.037	8.500	2.100	1.997
30.087	8.500	2.100	1.988
30.137	8.500	2.100	2.003
30.187	8.500	2.100	2.006
30.238	8.500	2.100	1.997
30.287	8.500	2.100	2.005
30.337	8.500	2.100	2.004
30.388	8.500	2.100	1.998
30.437	8.500	2.100	1.996
30.487	8.500	2.100	1.998
30.538	8.500	2.100	2.004
30.587	8.500	2.100	2.001
30.637	8.500	2.100	1.993
30.688	8.500	2.100	2.000
30.738	8.500	2.100	2.003
30.787	8.500	2.100	1.996
30.838	8.500	2.100	1.995
30.888	8.500	2.100	2.002
30.938	8.500	2.100	2.006
30.988	8.500	2.100	2.007
31.039	8.500	2.100	1.999
31.088	8.500	2.100	2.002
31.138	8.500	2.100	2.003
31.188	8.500	2.100	2.009
31.237	8.500	2.100	2.011
31.288	8.500	2.100	2.006
31.338	8.500	2.100	2.010
31.387	8.500	2.100	2.009
31.438	8.500	2.100	2.005
31.488	8.500	2.100	2.011
31.537	8.500	2.100	2.006
31.588	8.500	2.100	2.009
31.638	8.500	2.100	2.008
31.688	8.500	2.100	2.003
31.738	8.500	2.100	1.999
31.789	8.500	2.100	2.007
31.838	8.500	2.100	2.008
31.888	8.500	2.100	2.008
31.938	8.500	2.100	2.009
31.987	8.500	2.100	2.007
32.037	8.500	2.100	2.004
32.088	8.500	2.100	2.010
32.138	8.500	2.100	2.007
32.187	8.500	2.100	2.010
32.237	8.500	2.100	2.013
32.287	8.500	2.100	2.008
32.337	8.500	2.100	2.009
32.388	8.500	2.100	2.010
32.438	8.500	2.100	2.009
32.488	8.500	2.100	2.011
32.538	8.500	2.100	2.006
32.589	8.500	2.100	2.007
32.639	8.500	2.100	2.001
32.689	8.500	2.100	1.997
32.740	8.500	2.100	1.994
32.790	8.500	2.100	2.000
32.840	8.500	2.100	2.007
32.890	8.500	2.100	2.009
32.941	8.500	2.100	2.011
32.991	8.500	2.100	2.013
33.041	8.500	2.100	2.009
33.091	8.500	2.100	2.013
33.141	8.500	2.100	2.013
33.191	8.500	2.100	2.013
33.241	8.500	2.100	2.014
33.292	8.500	2.100	2.011
33.341	8.500	2.100	2.011
33.391	8.500	2.100	2.012
33.442	8.500	2.100	2.009
33.491	8.500	2.100	2.012
33.541	8.500	2.100	2.005
33.591	8.500	2.100	1.999
33.640	8.500	2.100	1.997
33.691	8.500	2.100	2.000
33.741	8.500	2.100	2.008
33.790	8.500	2.100	2.001
33.841	8.500	2.100	2.005
33.891	8.500	2.100	1.998
33.941	8.500	2.100	2.005
33.991	8.500	2.100	2.003
34.041	8.500	2.100	1.997
34.091	8.500	2.100	2.002
34.141	8.500	2.100	2.009
34.191	8.500	2.100	2.003
34.241	8.500	2.100	1.997
34.291	8.500	2.100	2.002
34.342	8.500	2.100	2.009
34.392	8.500	2.100	1.999
34.441	8.500	2.100	2.008
34.492	8.500	2.100	2.003
34.542	8.500	2.100	2.009
34.592	8.500	2.100	2.011
34.642	8.500	2.100	2.014
34.693	8.500	2.100	2.013
34.743	8.500	2.100	2.015
34.793	8.500	2.100	2.013
34.843	8.500	2.100	2.013
34.894	8.500	2.100	2.016
34.944	8.500	2.100	2.016
34.994	8.500	2.100	2.014
35.045	8.500	2.100	2.014
35.095	8.500	2.100	2.015
35.145	8.500	2.100	2.014
35.196	8.500	2.100	2.012
35.246	8.500	2.100	2.014
35.296	8.500	2.100	2.015
35.346	8.500	2.100	2.015
35.396	8.500	2.100	2.014
35.446	8.500	2.100	2.014
35.496	8.500	2.100	2.015
35.546	8.500	2.100	2.011
35.596	8.500	2.100	2.014
35.645	8.500	2.100	2.015
35.695	8.500	2.100	2.015
35.745	8.500	2.100	2.015
35.795	8.500	2.100	2.012
35.846	8.500	2.100	2.016
35.895	8.500	2.100	2.014
35.945	8.500	2.100	2.015
35.996	8.500	2.100	2.014
36.046	8.500	2.100	2.016
36.095	8.500	2.100	2.014
36.146	8.500	2.100	2.015
36.196	8.500	2.100	2.015
36.245	8.500	2.100	2.016
36.295	8.500	2.100	2.015
36.345	8.500	2.100	2.016
36.395	8.500	2.100	2.014
36.445	8.500	2.100	2.016
36.495	8.500	2.100	2.015
36.545	8.500	2.100	2.013
36.595	8.500	2.100	2.018
36.646	8.500	2.100	2.015
36.695	8.500	2.100	2.016
36.745	8.500	2.100	2.017
36.796	8.500	2.100	2.018
36.845	8.500	2.100	2.014
36.895	8.500	2.100	2.014
36.946	8.500	2.100	2.015
36.996	8.500	2.100	2.016
37.045	8.500	2.100	2.017
37.096	8.500	2.100	2.017
37.146	8.500	2.100	2.017
37.196	8.500	2.100	2.016
37.246	8.500	2.100	2.017
37.296	8.500	2.100	2.017
37.346	8.500	2.100	2.017
37.396	8.500	2.100	2.018
37.446	8.500	2.100	2.018
37.496	8.500	2.100	2.018
37.546	8.500	2.100	2.016
37.597	8.500	2.100	2.018
37.647	8.500	2.100	2.018
37.697	8.500	2.100	2.015
37.748	8.500	2.100	2.016
37.798	8.500	2.100	2.018
37.847	8.500	2.100	2.012
37.898	8.500	2.100	2.015
37.948	8.500	2.100	2.018
37.997	8.500	2.100	2.017
38.047	8.500	2.100	2.017
38.098	8.500	2.100	2.011
38.147	8.357	2.100	2.016
38.197	8.357	2.100	2.018
38.248	8.357	2.100	2.018
38.298	8.357	2.100	2.018
38.348	8.357	2.100	2.015
38.399	8.357	2.100	2.017
38.449	8.357	2.100	2.018
38.498	8.357	2.100	2.016
38.549	8.357	2.100	2.017
38.599	8.357	2.100	2.018
38.648	8.357	2.100	2.018
38.699	8.357	2.100	2.017
38.749	8.357	2.100	2.018
38.798	8.357	2.100	2.018
38.848	8.357	2.100	2.018
38.898	8.357	2.100	2.011
38.947	8.357	2.100	2.016
38.998	8.357	2.100	2.019
39.048	8.357	2.100	2.019
39.098	8.357	2.100	2.018
39.148	8.357	2.100	2.018
39.197	8.357	2.100	2.019
39.247	8.357	2.100	2.019
39.298	8.357	2.100	2.014
39.347	8.357	2.100	2.019
39.397	8.357	2.100	2.015
39.448	8.357	2.100	2.018
39.498	8.357	2.100	2.018
39.547	8.357	2.100	2.016
39.598	8.357	2.100	2.018
39.648	8.357	2.100	2.020
39.698	8.357	2.100	2.016
39.748	8.357	2.100	2.018
39.798	8.357	2.100	2.009
39.847	8.357	2.100	2.015
39.897	8.357	2.100	2.004
39.947	8.357	2.100	2.003
39.997	8.357	2.100	2.008
40.047	8.357	2.100	2.010
40.097	8.357	2.100	2.005
40.147	8.357	2.100	2.005
40.197	8.357	2.100	2.016
40.247	8.357	2.100	2.006
40.297	8.357	2.100	2.002
40.347	8.357	2.100	2.005
40.398	8.357	2.100	2.011
40.447	8.357	2.100	2.013
40.497	8.357	2.100	2.003
40.548	8.357	2.100	2.005
40.598	8.357	2.100	2.015
40.647	8.357	2.100	2.004
40.698	8.357	2.100	2.002
40.748	8.357	2.100	2.016
40.797	8.357	2.100	2.018
40.847	8.357	2.100	2.020
40.897	8.357	2.100	2.017
40.947	8.357	2.100	2.015
40.998	8.357	2.100	2.018
41.047	8.357	2.100	2.017
41.097	8.357	2.100	2.016
41.148	8.357	2.100	2.013
41.198	8.357	2.100	2.006
41.248	8.357	2.100	2.006
41.298	8.357	2.100	2.008
41.349	8.357	2.100	2.012
41.399	8.357	2.100	2.015
41.449	8.357	2.100	2.020
41.500	8.357	2.100	2.020
41.550	8.357	2.100	2.021
41.600	8.357	2.100	2.021
41.650	8.357	2.100	2.019
41.701	8.357	2.100	2.019
41.751	8.357	2.100	2.021
41.801	8.357	2.100	2.019
41.851	8.357	2.100	2.019
41.902	8.357	2.100	2.018
41.952	8.357	2.100	2.023
42.002	8.357	2.100	2.018
42.053	8.357	2.100	2.020
42.103	8.357	2.100	2.020
42.153	8.357	2.100	2.018
42.203	8.357	2.100	2.017
42.254	8.357	2.100	2.019
42.303	8.357	2.100	2.019
42.353	8.357	2.100	2.019
42.404	8.357	2.100	2.018
42.454	8.357	2.100	2.020
42.504	8.357	2.100	2.019
42.554	8.357	2.100	2.019
42.605	8.357	2.100	2.019
42.655	8.357	2.100	2.019
42.705	8.357	2.100	2.018
42.756	8.357	2.100	2.018
42.806	8.357	2.100	2.018
42.856	8.357	2.100	2.018
42.906	8.357	2.100	2.018
42.957	8.357	2.100	2.017
43.007	8.357	2.100	2.018
43.057	8.357	2.100	2.015
43.107	8.357	2.100	2.018
43.158	8.357	2.100	2.019
43.208	8.357	2.100	2.019
43.258	8.357	2.100	2.017
43.308	8.357	2.100	2.018
43.357	8.357	2.100	2.016
43.407	8.357	2.100	2.018
43.458	8.357	2.100	2.017
43.508	8.357	2.100	2.018
43.557	8.357	2.100	2.018
43.607	8.357	2.100	2.019
43.657	8.357	2.100	2.018
43.707	8.357	2.100	2.017
43.758	8.357	2.100	2.016
43.808	8.357	2.100	2.018
43.858	8.357	2.100	2.018
43.908	8.357	2.100	2.019
43.959	8.357	2.100	2.020
44.009	8.357	2.100	2.019
44.059	8.357	2.100	2.019
44.110	8.357	2.100	2.019
44.160	8.357	2.100	2.018
44.210	8.357	2.100	2.019
44.260	8.357	2.100	2.018
44.311	8.357	2.100	2.020
44.361	8.357	2.100	2.020
44.411	8.357	2.100	2.018
44.461	8.357	2.100	2.019
44.512	8.357	2.100	2.020
44.562	8.357	2.100	2.021
44.612	8.357	2.100	2.020
44.663	8.357	2.100	2.019
44.713	8.357	2.100	2.020
44.762	8.357	2.100	2.019
44.813	8.357	2.100	2.020
44.863	8.357	2.100	2.019
44.913	8.357	2.100	2.019
44.963	8.357	2.100	2.018
45.014	8.357	2.100	1.996
45.063	8.357	2.100	2.021
45.113	8.357	2.100	2.018
45.164	8.357	2.100	2.018
45.214	8.357	2.100	2.021
45.263	8.357	2.100	2.016
45.314	8.357	2.100	2.017
45.364	8.357	2.100	2.020
45.413	8.357	2.100	2.017
45.464	8.357	2.100	2.018
45.514	8.357	2.100	2.019
45.564	8.357	2.100	2.018
45.614	8.357	2.100	2.018
45.664	8.357	2.100	2.019
45.714	8.357	2.100	2.019
45.764	8.357	2.100	2.018
45.814	8.357	2.100	2.018
45.864	8.357	2.100	2.019
45.914	8.357	2.100	2.020
45.965	8.357	2.100	2.019
46.014	8.357	2.100	2.018
46.063	8.357	2.100	2.016
46.114	8.357	2.100	2.020
46.164	8.357	2.100	2.018
46.213	8.357	2.100	2.018
46.264	8.357	2.100	2.019
46.314	8.357	2.100	2.020
46.364	8.357	2.100	2.019
46.415	8.357	2.100	2.020
46.465	8.357	2.100	2.020
46.515	8.357	2.100	2.019
46.565	8.357	2.100	2.019
46.615	8.357	2.100	2.020
46.665	8.357	2.100	2.019
46.715	8.357	2.100	2.019
46.766	8.357	2.100	2.020
46.815	8.357	2.100	2.007
46.865	8.357	2.100	2.019
46.916	8.357	2.100	2.021
46.966	8.357	2.100	2.019
47.015	8.357	2.100	2.018
47.066	8.357	2.100	2.019
47.117	8.357	2.100	2.019
47.167	8.357	2.100	2.019
47.217	8.357	2.100	2.019
47.267	8.357	2.100	2.022
47.318	8.357	2.100	2.020
47.368	8.357	2.100	2.020
47.418	8.357	2.100	2.021
47.469	8.357	2.100	2.020
47.519	8.357	2.100	2.021
47.568	8.357	2.100	2.006
47.619	8.357	2.100	2.019
47.669	8.357	2.100	2.020
47.718	8.357	2.100	2.019
47.769	8.357	2.100	2.020
47.819	8.357	2.100	2.020
47.868	8.357	2.100	2.019
47.918	8.357	2.100	2.019
47.968	8.357	2.100	2.022
48.018	8.357	2.100	2.019
48.068	8.357	2.100	2.019
48.118	8.357	2.100	2.019
48.168	8.357	2.100	2.020
48.218	8.357	2.100	2.019
48.269	8.357	2.100	2.019
48.319	8.357	2.100	2.019
48.369	8.357	2.100	2.019
48.420	8.357	2.100	2.018
48.470	8.357	2.100	2.020
48.519	8.357	2.100	2.017
48.570	8.357	2.100	2.019
48.620	8.357	2.100	2.019
48.670	8.357	2.100	2.012
48.720	8.357	2.100	2.020
48.770	8.357	2.100	2.015
48.820	8.357	2.100	2.019
48.870	8.357	2.100	2.019
48.921	8.357	2.100	2.018
48.971	8.357	2.100	2.019
49.021	8.357	2.100	2.016
49.071	8.357	2.100	2.019
49.122	8.357	2.100	2.019
49.172	8.357	2.100	2.019
49.222	8.357	2.100	2.018
49.273	8.357	2.100	2.013
49.323	8.357	2.100	2.009
49.373	8.357	2.100	2.001
49.423	8.357	2.100	2.018
49.473	8.357	2.100	2.014
49.523	8.357	2.100	2.008
49.573	8.357	2.100	2.006
49.624	8.357	2.100	2.007
49.674	8.357	2.100	2.014
49.724	8.357	2.100	2.017
49.774	8.357	2.100	2.004
49.824	8.357	2.100	2.018
49.873	8.357	2.100	2.013
49.924	8.357	2.100	2.006
49.974	8.357	2.100	2.007
50.024	8.357	2.100	2.014
50.074	8.357	2.100	2.015
50.125	8.357	2.100	2.025
50.175	8.357	2.100	2.021
50.225	8.357	2.100	2.022
50.275	8.357	2.100	2.023
50.326	8.357	2.100	2.017
50.376	8.357	2.100	2.021
50.426	8.357	2.100	2.019
50.477	8.357	2.100	2.021
50.527	8.357	2.100	2.021
50.576	8.357	2.100	2.019
50.627	8.357	2.100	2.019
50.677	8.357	2.100	2.021
50.727	8.357	2.100	2.021
50.777	8.357	2.100	2.015
50.828	8.357	2.100	2.019
50.878	8.357	2.100	2.018
50.928	8.357	2.100	2.019
50.978	8.357	2.100	2.019
51.029	8.357	2.100	2.019
51.078	8.357	2.100	2.018
51.128	8.357	2.100	2.018
51.179	8.357	2.100	2.019
51.229	8.357	2.100	2.018
51.278	8.357	2.100	2.021
51.329	8.357	2.100	2.019
51.379	8.357	2.100	2.018
51.429	8.357	2.100	2.018
51.479	8.357	2.100	2.019
51.529	8.357	2.100	2.019
51.579	8.357	2.100	2.018
51.629	8.357	2.100	2.019
51.680	8.357	2.100	2.020
51.730	8.357	2.100	2.020
51.780	8.357	2.100	2.018
51.831	8.357	2.100	2.019
51.880	8.357	2.100	2.019
51.930	8.357	2.100	2.019
51.981	8.357	2.100	2.020
52.031	8.357	2.100	2.019
52.080	8.357	2.100	2.019
52.131	8.357	2.100	2.018
52.181	8.357	2.100	2.016
52.230	8.357	2.100	2.019
52.280	8.357	2.100	2.019
52.330	8.357	2.100	2.018
52.379	8.357	2.100	2.019
52.430	8.357	2.100	2.020
52.480	8.357	2.100	2.018
52.530	8.357	2.100	2.018
52.580	8.357	2.100	2.020
52.630	8.357	2.100	2.002
52.680	8.357	2.100	2.023
52.730	8.357	2.100	2.020
52.779	8.357	2.100	2.021
52.829	8.357	2.100	2.015
52.880	8.357	2.100	2.020
52.930	8.357	2.100	2.021
52.980	8.357	2.100	2.018
53.030	8.357	2.100	2.020
53.081	8.357	2.100	2.020
53.131	8.357	2.100	2.018
53.180	8.357	2.100	2.019
53.231	8.357	2.100	1.993
53.281	8.357	2.100	2.017
53.331	8.357	2.100	2.018
53.381	8.357	2.100	2.016
53.431	8.357	2.100	2.017
53.481	8.357	2.100	2.018
53.531	8.357	2.100	2.020
53.582	8.357	2.100	2.022
53.631	8.357	2.100	2.018
53.681	8.357	2.100	2.020
53.732	8.357	2.100	2.023
53.782	8.357	2.100	2.021
53.832	8.357	2.100	2.020
53.883	8.357	2.100	2.021
53.933	8.357	2.100	2.019
53.982	8.357	2.100	2.020
54.032	8.357	2.100	2.017
54.081	8.357	2.100	2.018
54.131	8.357	2.100	2.022
54.181	8.357	2.100	2.019
54.230	8.357	2.100	2.022
54.280	8.357	2.100	2.022
54.330	8.357	2.100	2.021
54.380	8.357	2.100	2.019
54.430	8.357	2.100	2.021
54.480	8.357	2.100	2.021
54.529	8.357	2.100	2.007
54.579	8.357	2.100	2.018
54.628	8.357	2.100	2.019
54.678	8.357	2.100	2.016
54.728	8.357	2.100	2.019
54.777	8.357	2.100	2.018
54.828	8.357	2.100	2.020
54.878	8.357	2.100	2.020
54.928	8.357	2.100	2.019
54.978	8.357	2.100	2.018
55.029	8.357	2.100	2.005
55.079	8.357	2.100	2.018
55.129	8.357	2.100	2.018
55.179	8.357	2.100	2.011
55.229	8.357	2.100	2.009
55.279	8.357	2.100	2.020
55.329	8.357	2.100	2.018
55.379	8.357	2.100	2.010
55.429	8.357	2.100	2.020
55.479	8.357	2.100	2.020
55.529	8.357	2.100	2.016
55.579	8.357	2.100	2.009
55.629	8.357	2.100	2.018
55.679	8.357	2.100	2.019
55.729	8.357	2.100	2.015
55.779	8.357	2.100	2.011
55.830	8.357	2.100	2.006
55.880	8.357	2.100	2.018
55.929	8.357	2.100	2.017
55.980	8.357	2.100	2.010
56.030	8.357	2.100	2.017
56.079	8.357	2.100	2.018
56.130	8.357	2.100	2.013
56.180	8.357	2.100	2.010
56.230	8.357	2.100	2.002
56.280	8.357	2.100	2.018
56.330	8.357	2.100	2.013
56.380	8.357	2.100	2.008
56.430	8.357	2.100	2.013
56.481	8.357	2.100	2.016
56.530	8.357	2.100	2.011
56.580	8.357	2.100	2.017
56.630	8.357	2.100	2.018
56.679	8.357	2.100	2.018
56.730	8.357	2.100	2.018
56.780	8.357	2.100	2.017
56.830	8.357	2.100	2.016
56.880	8.357	2.100	2.021
56.930	8.357	2.100	2.016
56.979	8.357	2.020	2.019
57.029	8.357	2.020	2.017
57.079	8.357	2.020	2.019
57.128	8.357	2.020	2.019
57.178	8.357	2.020	2.018
57.228	8.357	2.020	2.015
57.278	8.357	2.020	2.019
57.328	8.357	2.020	2.020
57.378	8.357	2.020	2.018
57.428	8.357	2.020	2.018
57.479	8.357	2.020	2.022
57.529	8.357	2.020	2.021
57.579	8.357	2.020	2.019
57.629	8.357	2.020	2.020
57.679	8.357	2.020	2.020
57.728	8.357	2.020	2.019
57.778	8.357	2.020	2.019
57.829	8.357	2.020	2.020
57.878	8.357	2.020	2.020
57.929	8.357	2.020	2.020
57.978	8.357	2.020	2.020
58.028	8.357	2.020	2.018
58.078	8.357	2.020	2.019
58.128	8.357	2.020	2.020
58.178	8.357	2.020	2.019
58.228	8.357	2.020	2.020
58.279	8.357	2.020	2.024
58.329	8.357	2.020	2.020
58.379	8.357	2.020	2.019
58.430	8.357	2.020	2.021
58.480	8.357	2.020	2.021
58.529	8.357	2.020	2.017
58.580	8.357	2.020	2.021
58.630	8.357	2.020	2.021
58.679	8.357	2.020	2.019
58.730	8.357	2.020	2.019
58.780	8.357	2.020	2.020
58.829	8.357	2.020	2.020
58.880	8.357	2.020	2.019
58.930	8.357	2.020	2.021
58.980	8.357	2.020	2.020
59.029	8.357	2.020	2.018
59.079	8.357	2.020	2.020
59.129	8.357	2.020	2.018
59.179	8.357	2.020	2.020
59.229	8.357	2.020	2.019
59.279	8.357	2.020	2.019
59.329	8.357	2.020	2.021
59.380	8.357	2.020	2.021
59.430	8.357	2.020	2.021
59.480	8.357	2.020	2.020
59.530	8.357	2.020	2.021
59.580	8.357	2.020	2.019
59.629	8.357	2.020	2.018
59.680	8.357	2.020	2.022
59.730	8.357	2.020	2.019
59.780	8.357	2.020	2.022
59.830	8.357	2.020	2.011
59.880	8.357	2.020	2.022
59.930	8.357	2.020	2.022
59.980	8.357	2.020	2.020
60.030	8.357	2.020	2.021
60.080	8.357	2.020	2.022
60.130	8.357	2.020	2.019
60.181	8.357	2.020	2.019
60.231	8.357	2.020	2.020
60.280	8.357	2.020	2.021
60.331	8.357	2.020	2.022
60.381	8.357	2.020	2.022
60.431	8.357	2.020	2.020
60.482	8.357	2.020	2.021
60.532	8.357	2.020	2.021
60.582	8.357	2.020	2.020
60.632	8.357	2.020	2.020
60.683	8.357	2.020	2.020
60.732	8.357	2.020	2.020
60.782	8.357	2.020	2.020
60.833	8.357	2.020	2.021
60.883	8.357	2.020	2.022
60.932	8.357	2.020	2.019
60.983	8.357	2.020	2.018
61.033	8.357	2.020	2.021
61.082	8.357	2.020	2.019
61.133	8.357	2.020	2.020
61.183	8.357	2.020	2.020
61.232	8.357	2.020	1.998
61.283	8.357	2.020	2.021
61.333	8.357	2.020	2.020
61.383	8.357	2.020	2.019
61.433	8.357	2.020	2.018
61.484	8.357	2.020	2.020
61.533	8.357	2.020	2.019
61.583	8.357	2.020	2.019
61.634	8.357	2.020	2.018
61.684	8.357	2.020	2.018
61.733	8.357	2.020	2.015
61.784	8.357	2.020	2.015
61.834	8.357	2.020	2.018
61.884	8.357	2.020	2.014
61.934	8.357	2.020	2.018
61.984	8.357	2.020	2.019
62.033	8.357	2.020	2.018
62.084	8.357	2.020	2.018
62.134	8.357	2.020	2.018
62.183	8.357	2.020	2.020
62.233	8.357	2.020	1.998
62.283	8.357	2.020	2.020
62.333	8.357	2.020	2.017
62.383	8.357	2.020	2.018
62.434	8.357	2.020	2.021
62.484	8.357	2.020	2.019
62.534	8.357	2.020	2.020
62.585	8.357	2.020	2.013
62.635	8.357	2.020	2.021
62.685	8.357	2.020	2.018
62.735	8.357	2.020	2.020
62.786	8.357	2.020	2.020
62.836	8.357	2.020	2.020
62.886	8.357	2.020	2.018
62.936	8.357	2.020	2.019
62.986	8.357	2.020	2.019
63.036	8.357	2.020	2.021
63.086	8.357	2.020	2.015
63.136	8.357	2.020	2.021
63.186	8.357	2.020	2.019
63.236	8.357	2.020	2.026
63.286	8.357	2.020	2.018
63.336	8.357	2.020	2.019
63.386	8.357	2.020	2.020
63.437	8.357	2.020	2.022
63.487	8.357	2.020	2.018
63.537	8.357	2.020	2.012
63.588	8.357	2.020	2.005
63.638	8.357	2.020	2.020
63.687	8.357	2.020	2.020
63.738	8.357	2.020	2.013
63.788	8.357	2.020	2.022
63.837	-0.000	2.020	2.019
63.887	0.000	2.020	2.017
63.938	0.000	2.020	2.010
63.988	0.000	2.020	2.016
64.038	0.000	2.020	2.011
64.089	0.000	2.020	2.005
64.139	0.000	2.020	1.998
64.189	0.000	2.020	1.988
64.239	0.000	2.020	1.984
64.290	0.000	2.020	1.977
64.340	0.000	2.020	1.971
64.390	0.000	2.020	1.962
64.440	0.000	2.020	1.971
64.490	0.000	2.020	1.970
64.540	0.000	2.020	1.966
64.590	0.000	2.020	1.956
64.639	0.000	2.020	1.960
64.689	0.000	2.020	1.964
64.740	0.000	2.020	1.953
64.789	0.000	2.020	1.956
64.839	0.000	2.020	1.963
64.890	0.000	2.020	1.953
64.940	0.000	2.020	1.953
64.989	0.000	2.020	1.956
65.040	0.000	2.020	1.964
65.090	0.000	2.020	1.954
65.139	0.000	2.020	1.955
65.190	0.000	2.020	1.957
65.240	0.000	2.020	1.965
65.290	0.000	2.020	1.967
65.340	0.000	2.020	1.956
65.390	0.000	2.020	1.964
65.439	0.000	2.020	1.969
65.489	0.000	2.020	1.969
65.539	0.000	2.020	1.966
65.589	0.000	2.020	1.965
65.639	0.000	2.020	1.958
65.690	0.000	2.020	1.968
65.739	0.000	2.020	1.966
65.789	0.000	2.020	1.963
65.840	0.000	2.020	1.957
65.890	0.000	2.020	1.966
65.939	0.000	2.020	1.966
65.990	0.000	2.020	1.960
66.040	0.000	2.020	1.955
66.090	0.000	2.020	1.968
66.140	0.000	2.020	1.966
66.190	0.000	2.020	1.960
66.240	0.000	2.020	1.969
66.290	0.000	2.020	1.966
66.340	0.000	2.020	1.964
66.390	0.000	2.020	1.961
66.440	0.000	2.020	1.968
66.490	0.000	2.020	1.967
66.540	0.000	2.020	1.963
66.590	0.000	2.020	1.953
66.641	0.000	2.020	1.968
66.690	0.000	2.020	1.966
66.740	0.000	2.020	1.964
66.791	0.000	2.020	1.958
66.841	0.000	2.020	1.967
66.890	0.000	2.020	1.966
66.941	0.000	2.020	1.963
66.991	0.000	2.020	1.966
67.040	0.000	2.020	1.967
67.091	0.000	2.020	1.964
67.141	0.000	2.020	1.960
67.191	0.000	2.020	1.968
67.241	0.000	2.020	1.968
67.291	0.000	2.020	1.965
67.341	0.000	2.020	1.959
67.391	0.000	2.020	1.953
67.442	0.000	2.020	1.958
67.492	0.000	2.020	1.964
67.542	0.000	2.020	1.964
67.593	0.000	2.020	1.969
67.643	0.000	2.020	1.969
67.693	0.000	2.020	1.970
67.743	0.000	2.020	1.970
67.794	0.000	2.020	1.969
67.844	0.000	2.020	1.969
67.894	0.000	2.020	1.970
67.944	0.000	2.020	1.958
67.995	0.000	2.020	1.970
68.045	0.000	2.020	1.969
68.095	0.000	2.020	1.967
68.146	0.000	2.020	1.968
68.196	0.000	2.020	1.968
68.246	0.000	2.020	1.968
68.296	0.000	2.020	1.966
68.347	0.000	2.020	1.968
68.397	0.000	2.020	1.968
68.447	0.000	2.020	1.966
68.497	0.000	2.020	1.968
68.547	0.000	2.020	1.968
68.597	0.000	2.020	1.966
68.647	0.000	2.020	1.968
68.698	0.000	2.020	1.967
68.748	0.000	2.020	1.968
68.798	0.000	2.020	1.968
68.849	0.000	2.020	1.967
68.899	0.000	2.020	1.967
68.949	0.000	2.020	1.966
68.999	0.000	2.020	1.967
69.049	0.000	2.020	1.967
69.099	0.000	2.020	1.967
69.149	0.000	2.020	1.968
69.199	0.000	2.020	1.968
69.248	0.000	2.020	1.967
69.298	0.000	2.020	1.968
69.349	0.000	2.020	1.967
69.399	0.000	2.020	1.970
69.449	0.000	2.020	1.967
69.500	0.000	2.020	1.968
69.550	0.000	2.020	1.968
69.599	0.000	2.020	1.967
69.650	0.000	2.020	1.968
69.700	0.000	2.020	1.967
69.750	0.000	2.020	1.966
69.800	0.000	2.020	1.969
69.851	0.000	2.020	1.964
69.901	0.000	2.020	1.966
69.951	0.000	2.020	1.965
70.001	0.000	2.020	1.969
70.051	0.000	2.020	1.968
70.101	0.000	2.020	1.965
70.151	0.000	2.020	1.968
70.202	0.000	2.020	1.969
70.251	0.000	2.020	1.967
70.301	0.000	2.020	1.965
70.352	0.000	2.020	1.968
70.402	0.000	2.020	1.967
70.451	0.000	2.020	1.965
70.502	0.000	2.020	1.964
70.552	0.000	2.020	1.968
70.601	0.000	2.020	1.965
70.652	0.000	2.020	1.967
70.702	0.000	2.020	1.966
70.752	0.000	2.020	1.967
70.802	0.000	2.020	1.969
70.852	0.000	2.020	1.967
70.902	0.000	2.020	1.966
70.952	0.000	2.020	1.969
71.003	0.000	2.020	1.970
71.052	0.000	2.020	1.968
71.102	0.000	2.020	1.969
71.153	0.000	2.020	1.968
71.203	0.000	2.020	1.967
71.253	0.000	2.020	1.962
71.303	0.000	2.020	1.972
71.353	0.000	2.020	1.968
71.403	0.000	2.020	1.966
71.453	0.000	2.020	1.969
71.503	0.000	2.020	1.969
71.552	0.000	2.020	1.966
71.603	0.000	2.020	1.968
71.653	0.000	2.020	1.970
71.703	0.000	2.020	1.967
71.753	0.000	2.020	1.968
71.804	0.000	2.020	1.968
71.854	0.000	2.020	1.967
71.904	0.000	2.020	1.968
71.955	0.000	2.020	1.969
72.005	0.000	2.020	1.968
72.055	0.000	2.020	1.968
72.105	0.000	2.020	1.967
72.156	0.000	2.020	1.968
72.206	0.000	2.020	1.966
72.256	0.000	2.020	1.967
72.306	0.000	2.020	1.968
72.356	0.000	2.020	1.967
72.406	0.000	2.020	1.967
72.456	0.000	2.020	1.967
72.507	0.000	2.020	1.968
72.557	0.000	2.020	1.967
72.606	0.000	2.020	1.967
72.657	0.000	2.020	1.969
72.707	0.000	2.020	1.969
72.756	0.000	2.020	1.967
72.806	0.000	2.020	1.968
72.855	0.000	2.020	1.965
72.906	0.000	2.020	1.967
72.956	0.000	2.020	1.967
73.005	0.000	2.020	1.969
73.055	0.000	2.020	1.946
73.104	0.000	2.020	1.965
73.154	0.000	2.020	1.967
73.204	0.000	2.020	1.967
73.253	0.000	2.020	1.966
73.303	0.000	2.020	1.970
73.353	0.000	2.020	1.968
73.403	0.000	2.020	1.969
73.453	0.000	2.020	1.967
73.503	0.000	2.020	1.968
73.553	0.000	2.020	1.968
73.603	0.000	2.020	1.967
73.654	0.000	2.020	1.969
73.703	0.000	2.020	1.967
73.753	0.000	2.020	1.966
73.804	0.054	2.020	1.969
73.853	0.051	2.020	1.967
73.903	0.053	2.020	1.968
73.954	0.052	2.020	1.968
74.004	0.052	2.020	1.968
74.053	0.105	2.020	1.966
74.104	0.108	2.020	1.968
74.154	0.104	2.020	1.968
74.203	0.104	2.020	1.966
74.254	0.109	2.020	1.968
74.304	0.103	2.020	1.967
74.354	0.105	2.020	1.967
74.404	0.105	2.020	1.968
74.455	0.104	2.020	1.969
74.504	0.102	2.020	1.968
74.554	0.104	2.020	1.968
74.604	0.103	2.020	1.969
74.653	0.102	2.020	1.968
74.704	0.104	2.020	1.968
74.754	0.104	2.020	1.971
74.803	0.098	2.020	1.967
74.854	0.106	2.020	1.966
74.904	0.108	2.020	1.970
74.953	0.100	2.020	1.967
75.004	0.105	2.020	1.966
75.054	0.107	2.020	1.967
75.103	0.105	2.020	1.966
75.153	0.107	2.020	1.969
75.204	0.103	2.020	1.970
75.254	0.100	2.020	1.970
75.304	0.150	2.020	1.969
75.355	0.152	2.020	1.969
75.405	0.154	2.020	1.969
75.454	0.153	2.020	1.967
75.505	0.159	2.020	1.968
75.555	0.156	2.020	1.969
75.605	0.153	2.020	1.970
75.655	0.150	2.020	1.967
75.706	0.158	2.020	1.969
75.756	0.152	2.020	1.968
75.806	0.155	2.020	1.967
75.856	0.158	2.020	1.968
75.906	0.155	2.020	1.966
75.956	0.163	2.020	1.968
76.006	0.156	2.020	1.968
76.056	0.156	2.020	1.968
76.106	0.156	2.020	1.967
76.156	0.158	2.020	1.968
76.207	0.157	2.020	1.963
76.257	0.170	2.020	1.970
76.307	0.150	2.020	1.967
76.357	0.160	2.020	1.969
76.408	0.153	2.020	1.969
76.457	0.152	2.020	1.966
76.508	0.161	2.020	1.969
76.558	0.154	2.020	1.969
76.608	0.154	2.020	1.966
76.657	0.162	2.020	1.970
76.707	0.199	2.020	1.969
76.757	0.206	2.020	1.968
76.807	0.210	2.020	1.969
76.858	0.206	2.020	1.968
76.908	0.207	2.020	1.969
76.958	0.203	2.020	1.968
77.009	0.208	2.020	1.969
77.058	0.203	2.020	1.967
77.107	0.212	2.020	1.968
77.158	0.210	2.020	1.970
77.208	0.200	2.020	1.968
77.257	0.207	2.020	1.966
77.308	0.215	2.020	1.969
77.358	0.203	2.020	1.963
77.407	0.229	2.020	1.969
77.458	0.204	2.020	1.970
77.508	0.202	2.020	1.969
77.558	0.204	2.020	1.967
77.608	0.212	2.020	1.968
77.659	0.208	2.020	1.969
77.708	0.203	2.020	1.968
77.758	0.259	2.020	1.969
77.809	0.254	2.020	1.969
77.858	0.255	2.020	1.969
77.908	0.257	2.020	1.969
77.959	0.257	2.020	1.968
78.008	0.259	2.020	1.970
78.058	0.252	2.020	1.965
78.109	0.275	2.020	1.969
78.159	0.257	2.020	1.970
78.209	0.252	2.020	1.968
78.259	0.259	2.020	1.969
78.309	0.254	2.020	1.969
78.359	0.257	2.020	1.967
78.409	0.264	2.020	1.970
78.459	0.250	2.020	1.969
78.509	0.257	2.020	1.968
78.559	0.262	2.020	1.969
78.610	0.255	2.020	1.969
78.659	0.257	2.020	1.968
78.709	0.260	2.020	1.965
78.760	0.277	2.020	1.968
78.810	0.260	2.020	1.969
78.859	0.257	2.020	1.967
78.910	0.267	2.020	1.970
78.959	0.250	2.020	1.968
79.009	0.262	2.020	1.969
79.059	0.255	2.020	1.969
79.108	0.255	2.020	1.967
79.158	0.265	2.020	1.968
79.208	0.259	2.020	1.971
79.257	0.244	2.020	1.966
79.308	0.268	2.020	1.968
79.358	0.259	2.020	1.969
79.407	0.254	2.020	1.967
79.458	0.267	2.020	1.970
79.508	0.250	2.020	1.968
79.558	0.262	2.020	1.969
79.608	0.306	2.020	1.969
79.659	0.308	2.020	1.970
79.708	0.299	2.020	1.968
79.758	0.310	2.020	1.969
79.809	0.308	2.020	1.969
79.859	0.305	2.020	1.969
79.909	0.308	2.020	1.968
79.959	0.312	2.020	1.967
80.010	0.316	2.020	1.971
80.060	0.346	2.020	1.969
80.110	0.360	2.020	1.969
80.160	0.358	2.020	1.969
80.210	0.358	2.020	1.968
80.260	0.364	2.020	1.968
80.310	0.367	2.020	1.970
80.361	0.351	2.020	1.968
80.410	0.364	2.020	1.968
80.461	0.367	2.020	1.969
80.511	0.358	2.020	1.965
80.561	0.437	2.020	1.969
80.611	0.411	2.020	1.968
80.661	0.414	2.020	1.970
80.710	0.398	2.020	1.967
80.761	0.427	2.020	1.967
80.811	0.427	2.020	1.968
80.861	0.416	2.020	1.968
80.911	0.419	2.020	1.967
80.962	0.422	2.020	1.969
81.012	0.411	2.020	1.969
81.062	0.409	2.020	1.966
81.112	0.432	2.020	1.968
81.163	0.416	2.020	1.968
81.212	0.416	2.020	1.967
81.262	0.424	2.020	1.967
81.312	0.422	2.020	1.969
81.361	0.406	2.020	1.967
81.411	0.477	2.020	1.968
81.462	0.471	2.020	1.969
81.512	0.457	2.020	1.969
81.562	0.457	2.020	1.968
81.613	0.471	2.020	1.966
81.663	0.483	2.020	1.969
81.713	0.460	2.020	1.966
81.763	0.483	2.020	1.968
81.814	0.468	2.020	1.968
81.864	0.466	2.020	1.969
81.914	0.463	2.020	1.967
81.965	0.474	2.020	1.967
82.014	0.480	2.020	1.968
82.064	0.521	2.020	1.969
82.114	0.514	2.020	1.967
82.165	0.527	2.020	1.970
82.214	0.501	2.020	1.967
82.264	0.530	2.020	1.968
82.315	0.521	2.020	1.967
82.365	0.527	2.020	1.970
82.415	0.504	2.020	1.965
82.465	0.547	2.020	1.968
82.515	0.521	2.020	1.969
82.565	0.511	2.020	1.969
82.616	0.511	2.020	1.969
82.666	0.514	2.020	1.967
82.715	0.530	2.020	1.969
82.766	0.508	2.020	1.970
82.815	0.504	2.020	1.970
82.865	0.555	2.020	1.968
82.916	0.573	2.020	1.969
82.966	0.562	2.020	1.970
83.015	0.551	2.020	1.967
83.065	0.580	2.020	1.969
83.116	0.558	2.020	1.969
83.166	0.558	2.020	1.969
83.216	0.562	2.020	1.969
83.266	0.558	2.020	1.970
83.315	0.551	2.020	1.969
83.365	0.565	2.020	1.967
83.415	0.580	2.020	1.968
83.465	0.569	2.020	1.967
83.515	0.583	2.020	1.968
83.565	0.573	2.020	1.970
83.615	0.555	2.020	1.967
83.665	0.580	2.020	1.969
83.715	0.562	2.020	1.969
83.764	0.565	2.020	1.968
83.814	0.576	2.020	1.968
83.865	0.576	2.020	1.967
83.914	0.580	2.020	1.965
83.964	0.605	2.020	1.964
84.015	0.668	2.020	1.969
84.064	0.613	2.020	1.967
84.114	0.640	2.020	1.969
84.164	0.613	2.020	1.968
84.214	0.621	2.020	1.966
84.264	0.644	2.020	1.968
84.314	0.621	2.020	1.967
84.364	0.636	2.020	1.968
84.414	0.621	2.020	1.968
84.464	0.625	2.020	1.968
84.514	0.621	2.020	1.967
84.564	0.640	2.020	1.969
84.615	0.668	2.020	1.968
84.664	0.681	2.020	1.968
84.714	0.677	2.020	1.968
84.765	0.681	2.020	1.968
84.814	0.672	2.020	1.967
84.864	0.685	2.020	1.966
84.915	0.698	2.020	1.969
84.965	0.660	2.020	1.969
85.015	0.668	2.020	1.968
85.065	0.672	2.020	1.968
85.115	0.672	2.020	1.969
85.165	0.711	2.020	1.969
85.215	0.720	2.020	1.969
85.266	0.720	2.020	1.970
85.316	0.701	2.020	1.971
85.366	0.688	2.020	1.969
85.416	0.720	2.020	1.968
85.467	0.724	2.020	1.970
85.517	0.697	2.020	1.970
85.567	0.701	2.020	1.966
85.618	0.752	2.020	1.971
85.668	0.742	2.020	1.969
85.718	0.766	2.020	1.967
85.768	0.800	2.020	1.969
85.819	0.766	2.020	1.970
85.869	0.751	2.020	1.967
85.919	0.791	2.020	1.969
85.969	0.766	2.020	1.968
86.019	0.781	2.020	1.969
86.069	0.761	2.020	1.969
86.119	0.771	2.020	1.968
86.170	0.776	2.020	1.974
86.219	0.729	2.020	1.968
86.270	0.828	2.020	1.963
86.320	0.916	2.020	1.970
86.370	0.796	2.020	1.969
86.420	0.812	2.020	1.968
86.471	0.833	2.020	1.969
86.521	0.812	2.020	1.968
86.571	0.828	2.020	1.968
86.621	0.838	2.020	1.968
86.672	0.879	2.020	1.968
86.721	0.879	2.020	1.968
86.771	0.879	2.020	1.969
86.822	0.868	2.020	1.969
86.871	0.868	2.020	1.970
86.921	0.857	2.020	1.969
86.972	0.874	2.020	1.968
87.022	0.890	2.020	1.970
87.072	0.852	2.020	1.968
87.122	0.885	2.020	1.971
87.172	0.890	2.020	1.969
87.222	0.919	2.020	1.971
87.272	0.890	2.020	1.969
87.323	0.925	2.020	1.969
87.374	0.919	2.020	1.969
87.424	0.919	2.020	1.969
87.474	0.919	2.020	1.970
87.525	0.902	2.020	1.970
87.575	0.896	2.020	1.970
87.625	0.896	2.020	1.970
87.675	0.908	2.020	1.968
87.725	0.937	2.020	1.969
87.775	0.925	2.020	1.967
87.825	0.955	2.020	1.966
87.875	0.972	2.020	1.968
87.924	0.943	2.020	1.966
87.974	0.972	2.020	1.968
88.024	0.983	2.020	1.967
88.074	1.008	2.020	1.969
88.124	0.977	2.020	1.969
88.174	0.964	2.020	1.969
88.224	0.970	2.020	1.969
88.274	0.970	2.020	1.967
88.324	1.001	2.020	1.969
88.374	0.964	2.020	1.969
88.424	0.977	2.020	1.970
88.475	0.952	2.020	1.971
88.524	0.989	2.020	1.968
88.574	1.035	2.020	1.968
88.625	1.041	2.020	1.970
88.674	1.008	2.020	1.968
88.724	1.035	2.020	1.968
88.774	1.035	2.020	1.969
88.824	1.028	2.020	1.967
88.874	1.054	2.020	1.973
88.924	0.997	2.020	1.969
88.974	1.066	2.020	1.969
89.024	1.066	2.020	1.968
89.074	1.100	2.020	1.969
89.124	1.073	2.020	1.969
89.174	1.079	2.020	1.968
89.225	1.086	2.020	1.969
89.274	1.073	2.020	1.969
89.324	1.079	2.020	1.969
89.375	1.079	2.020	1.970
89.424	1.059	2.020	1.969
89.474	1.073	2.020	1.967
89.525	1.114	2.020	1.970
89.575	1.059	2.020	1.970
89.624	1.059	2.020	1.969
89.675	1.073	2.020	1.969
89.725	1.066	2.020	1.970
89.775	1.059	2.020	1.968
89.825	1.152	2.020	1.968
89.875	1.145	2.020	1.971
89.925	1.088	2.020	1.969
89.975	1.167	2.020	1.971
90.025	1.137	2.020	1.970
90.075	1.152	2.020	1.969
90.125	1.182	2.020	1.969
90.175	1.167	2.020	1.970
90.224	1.152	2.020	1.967
90.274	1.212	2.020	1.970
90.325	1.210	2.020	1.970
90.374	1.202	2.020	1.970
90.425	1.210	2.020	1.969
90.475	1.218	2.020	1.969
90.525	1.234	2.020	1.967
90.574	1.281	2.020	1.970
90.625	1.202	2.020	1.970
90.675	1.261	2.020	1.969
90.725	1.269	2.020	1.969
90.775	1.277	2.020	1.970
90.825	1.252	2.020	1.970
90.874	1.261	2.020	1.971
90.925	1.236	2.020	1.971
90.974	1.286	2.020	1.970
91.024	1.311	2.020	1.969
91.074	1.328	2.020	1.969
91.123	1.336	2.020	1.966
91.173	1.404	2.020	1.969
91.224	1.328	2.020	1.969
91.273	1.328	2.020	1.968
91.323	1.405	2.020	1.968
91.374	1.397	2.020	1.969
91.423	1.379	2.020	1.971
91.473	1.335	2.020	1.968
91.524	1.467	2.020	1.966
91.574	1.512	2.020	1.970
91.624	1.394	2.020	1.967
91.675	1.485	2.020	1.970
91.725	1.443	2.020	1.970
91.775	1.453	2.020	1.966
91.824	1.576	2.020	1.968
91.874	1.500	2.020	1.968
91.924	1.562	2.020	1.969
91.974	1.532	2.020	1.967
92.024	1.581	2.020	1.967
92.074	1.581	2.020	1.969
92.124	1.593	2.020	1.961
92.175	1.826	2.020	1.965
92.224	1.695	2.020	1.966
92.274	1.664	2.020	1.969
92.325	1.634	2.020	1.969
92.375	1.645	2.020	1.967
92.424	1.697	2.020	1.969
92.475	1.675	2.020	1.963
92.525	1.868	2.020	1.967
92.575	1.739	2.020	1.968
92.625	1.729	2.020	1.970
92.675	1.703	2.020	1.970
92.725	1.714	2.020	1.970
92.775	1.714	2.020	1.965
92.825	1.925	2.020	1.971
92.875	1.731	2.020	1.967
92.925	1.868	2.020	1.969
92.974	1.776	2.020	1.968
93.024	1.862	2.020	1.969
93.075	1.827	2.020	1.969
93.124	1.827	2.020	1.971
93.174	1.768	2.020	1.969
93.225	1.890	2.020	1.969
93.275	1.878	2.020	1.969
93.325	1.890	2.020	1.968
93.375	1.914	2.020	1.970
93.425	1.916	2.020	1.969
93.475	1.953	2.020	1.969
93.525	1.941	2.020	1.968
93.576	1.966	2.020	1.969
93.625	1.941	2.020	1.968
93.675	1.966	2.020	1.970
93.725	1.904	2.020	1.970
93.775	1.954	2.020	1.968
93.825	2.017	2.020	1.970
93.875	1.967	2.020	1.969
93.924	2.056	2.020	1.969
93.974	2.030	2.020	1.969
94.025	2.056	2.020	1.969
94.074	2.043	2.020	1.967
94.124	2.108	2.020	1.968
94.175	2.069	2.020	1.968
94.224	2.069	2.020	1.967
94.274	2.108	2.020	1.970
94.325	1.991	2.020	1.969
94.375	2.056	2.020	1.970
94.425	2.067	2.020	1.969
94.475	2.108	2.020	1.968
94.525	2.134	2.020	1.963
94.575	2.321	2.020	1.968
94.626	2.121	2.020	1.969
94.676	2.108	2.020	1.970
94.726	2.054	2.020	1.970
94.776	2.104	2.020	1.968
94.827	2.186	2.020	1.968
94.877	2.186	2.020	1.969
94.926	2.132	2.020	1.969
94.977	2.159	2.020	1.970
95.027	2.104	2.020	1.968
95.076	2.200	2.020	1.969
95.126	2.145	2.020	1.972
95.176	2.070	2.020	1.967
95.225	2.280	2.020	1.964
95.276	2.421	2.020	1.969
95.326	2.182	2.020	1.965
95.375	2.379	2.020	1.968
95.426	2.224	2.020	1.970
95.475	2.154	2.020	1.968
95.525	2.224	2.020	1.970
95.575	2.219	2.020	1.970
95.625	2.219	2.020	1.969
95.675	2.262	2.020	1.971
95.726	2.176	2.020	1.970
95.775	2.219	2.020	1.970
95.825	2.190	2.020	1.968
95.876	2.276	2.020	1.969
95.926	2.262	2.020	1.971
95.976	2.196	2.020	1.968
96.026	2.342	2.020	1.969
96.076	2.284	2.020	1.970
96.126	2.269	2.020	1.969
96.176	2.313	2.020	1.971
96.226	2.225	2.020	1.968
96.275	2.328	2.020	1.971
96.325	2.225	2.020	1.968
96.375	2.395	2.020	1.970
96.425	2.320	2.020	1.968
96.475	2.380	2.020	1.970
96.525	2.290	2.020	1.970
96.575	2.290	2.020	1.968
96.625	2.410	2.020	1.970
96.676	2.305	2.020	1.969
96.725	2.335	2.020	1.969
96.775	2.350	2.020	1.971
96.826	2.293	2.020	1.969
96.875	2.385	2.020	1.970
96.925	2.370	2.020	1.971
96.974	2.324	2.020	1.969
97.023	2.416	2.020	1.969
97.074	2.401	2.020	1.972
97.123	2.263	2.020	1.969
97.173	2.416	2.020	1.967
97.224	2.546	2.020	1.968
97.274	2.499	2.020	1.968
97.324	2.483	2.020	1.968
97.375	2.483	2.020	1.970
97.424	2.405	2.020	1.971
97.474	2.373	2.020	1.969
97.525	2.452	2.020	1.957
97.575	3.015	2.020	1.972
97.625	2.375	2.020	1.971
97.675	2.391	2.020	1.971
97.726	2.391	2.020	1.970
97.776	2.471	2.020	1.972
97.826	2.375	2.020	1.968
97.876	2.535	2.020	1.965
97.927	2.695	2.020	1.969
97.977	2.487	2.020	1.966
98.027	2.717	2.020	1.967
98.077	2.635	2.020	1.975
98.127	2.260	2.020	2.008
98.177	0.581	2.020	2.154
98.228	0.000	2.020	2.437
98.278	0.000	2.020	2.233
98.327	0.000	2.020	2.089
98.377	0.000	2.020	2.018
98.428	0.094	2.020	1.986
98.478	1.757	2.020	1.973
98.528	2.372	2.020	1.969
98.579	2.588	2.020	1.968
98.629	2.655	2.020	1.972
98.679	2.439	2.020	1.972
98.729	2.439	2.020	1.968
98.780	2.638	2.020	1.968
98.830	2.690	2.020	1.970
98.880	2.622	2.020	1.970
98.931	2.622	2.020	1.968
98.981	2.690	2.020	1.970
99.031	2.622	2.020	1.969
99.081	2.639	2.020	1.968
99.132	2.690	2.020	1.969
99.182	2.656	2.020	1.969
99.232	2.690	2.020	1.946
99.282	3.900	2.020	1.966
99.333	2.863	2.020	1.969
99.382	2.690	2.020	1.968
99.432	2.759	2.020	1.968
99.483	2.759	2.020	1.968
99.533	2.742	2.020	1.969
99.583	2.724	2.020	1.967
99.633	2.846	2.020	1.968
99.684	2.811	2.020	1.969
99.734	2.758	2.020	1.967
99.784	2.864	2.020	1.964
99.834	3.005	2.020	1.968
99.884	2.793	2.020	1.971
99.934	2.670	2.020	1.968
99.984	2.793	2.020	1.968
100.034	2.811	2.020	1.967
100.083	2.899	2.020	1.969
100.134	2.791	2.020	1.969
100.184	2.827	2.020	1.969
100.234	2.809	2.020	1.966
100.284	2.989	2.020	1.969
100.335	2.827	2.020	1.971
100.384	2.720	2.020	1.968
100.434	2.863	2.020	1.969
100.485	2.842	2.020	1.968
100.534	2.915	2.020	1.966
100.584	3.025	2.020	1.969
100.635	2.860	2.020	1.970
100.684	2.787	2.020	1.968
100.734	2.897	2.020	1.971
100.785	2.751	2.020	1.970
100.835	2.806	2.020	1.963
100.884	3.265	2.020	1.969
100.934	2.930	2.020	1.969
100.983	2.911	2.020	1.967
101.033	3.076	2.020	1.968
101.084	3.019	2.020	1.968
101.133	3.019	2.020	1.966
101.184	3.114	2.020	1.967
101.234	3.110	2.020	1.950
101.284	4.129	2.020	1.969
101.334	3.033	2.020	1.969
101.385	3.033	2.020	1.970
101.435	2.975	2.020	1.969
101.485	3.033	2.020	1.971
101.536	2.917	2.020	1.969
101.586	2.994	2.020	1.968
101.636	3.071	2.020	1.969
101.686	3.033	2.020	1.968
101.736	3.052	2.020	1.972
101.786	2.908	2.020	1.968
101.836	3.104	2.020	1.968
101.886	3.123	2.020	1.969
101.935	3.136	2.020	1.969
101.984	3.136	2.020	1.969
102.034	3.116	2.020	1.969
102.084	3.136	2.020	1.968
102.134	3.248	2.020	1.968
102.185	3.207	2.020	1.964
102.235	3.470	2.020	1.966
102.285	3.369	2.020	1.969
102.336	3.218	2.020	1.968
102.386	3.279	2.020	1.970
102.436	3.177	2.020	1.968
102.486	3.311	2.020	1.971
102.536	3.165	2.020	1.970
102.586	3.227	2.020	1.969
102.636	3.290	2.020	1.973
102.686	3.087	2.020	1.970
102.736	3.256	2.020	1.968
102.786	3.362	2.020	1.970
102.837	3.278	2.020	1.970
102.886	3.285	2.020	1.971
102.936	3.263	2.020	1.968
102.987	3.414	2.020	1.970
103.037	3.357	2.020	1.970
103.086	3.335	2.020	1.969
103.137	3.444	2.020	1.970
103.187	3.357	2.020	1.969
103.237	3.451	2.020	1.970
103.287	3.429	2.020	1.970
103.338	3.385	2.020	1.968
103.388	3.518	2.020	1.969
103.438	3.502	2.020	1.970
103.488	3.457	2.020	1.970
103.539	3.434	2.020	1.968
103.589	3.592	2.020	1.970
103.639	3.530	2.020	1.968
103.690	3.621	2.020	1.966
103.740	3.781	2.020	1.969
103.789	3.603	2.020	1.968
103.840	3.696	2.020	1.969
103.890	3.650	2.020	1.970
103.940	3.580	2.020	1.969
103.990	3.654	2.020	1.970
104.040	3.607	2.020	1.969
104.090	3.701	2.020	1.967
104.140	3.795	2.020	1.971
104.190	3.610	2.020	1.969
104.240	3.705	2.020	1.969
104.290	3.752	2.020	1.968
104.341	3.852	2.020	1.969
104.390	3.804	2.020	1.970
104.440	3.731	2.020	1.967
104.491	3.900	2.020	1.967
104.541	3.953	2.020	1.969
104.591	3.855	2.020	1.967
104.642	3.978	2.020	1.968
104.692	3.904	2.020	1.973
104.742	3.609	2.020	1.968
104.792	3.981	2.020	1.970
104.842	3.832	2.020	1.970
104.893	3.832	2.020	1.969
104.943	3.908	2.020	1.968
104.993	3.983	2.020	1.969
105.044	3.908	2.020	1.968
105.093	4.035	2.020	1.969
105.143	3.984	2.020	1.966
105.194	4.187	2.020	1.968
105.244	4.086	2.020	1.970
105.293	3.958	2.020	1.967
105.344	4.215	2.020	1.968
105.394	4.087	2.020	1.969
105.444	4.009	2.020	1.968
105.494	4.164	2.020	1.969
105.544	4.060	2.020	1.968
105.593	4.138	2.020	1.969
105.643	4.086	2.020	1.968
105.693	4.190	2.020	1.969
105.743	4.111	2.020	1.968
105.793	4.190	2.020	1.967
105.844	4.296	2.020	1.969
105.893	4.162	2.020	1.966
105.944	4.456	2.020	1.967
105.994	4.349	2.020	1.968
106.044	4.295	2.020	1.969
106.094	4.266	2.020	1.968
106.145	4.321	2.020	1.970
106.194	4.158	2.020	1.968
106.244	4.294	2.020	1.968
106.294	4.373	2.020	1.968
106.344	4.400	2.020	1.968
106.394	4.373	2.020	1.969
106.445	4.263	2.020	1.968
106.494	4.452	2.020	1.968
106.544	4.397	2.020	1.968
106.594	4.425	2.020	1.969
106.645	4.369	2.020	1.971
106.695	4.252	2.020	1.969
106.745	4.421	2.020	1.967
106.795	4.589	2.020	1.964
106.845	4.813	2.020	1.968
106.895	4.557	2.020	1.967
106.945	4.586	2.020	1.969
106.995	4.444	2.020	1.969
107.045	4.444	2.020	1.969
107.095	4.466	2.020	1.968
107.145	4.552	2.020	1.970
107.195	4.380	2.020	1.968
107.245	4.552	2.020	1.966
107.296	4.778	2.020	1.968
107.346	4.604	2.020	1.967
107.396	4.691	2.020	1.967
107.447	4.691	2.020	1.970
107.497	4.538	2.020	1.970
107.547	4.538	2.020	1.967
107.598	4.744	2.020	1.969
107.648	4.568	2.020	1.968
107.698	4.685	2.020	1.970
107.748	4.559	2.020	1.966
107.799	4.885	2.020	1.970
107.849	4.559	2.020	1.969
107.898	4.678	2.020	1.966
107.948	4.939	2.020	1.968
107.998	4.759	2.020	1.968
108.048	4.819	2.020	1.966
108.098	4.999	2.020	1.968
108.149	4.759	2.020	1.969
108.199	4.780	2.020	1.967
108.249	4.902	2.020	1.962
108.300	5.357	2.020	1.957
108.350	5.872	2.020	1.967
108.399	4.962	2.020	1.965
108.450	5.138	2.020	1.963
108.500	5.353	2.020	1.959
108.550	5.751	2.020	1.954
108.600	6.242	2.020	1.957
108.651	6.029	2.020	1.964
108.701	5.317	2.020	1.965
108.751	5.193	2.020	1.967
108.801	5.007	2.020	1.968
108.852	4.914	2.020	1.970
108.902	4.759	2.020	1.967
108.951	5.069	2.020	1.966
109.002	5.100	2.020	1.962
109.051	5.534	2.020	1.962
109.101	5.503	2.020	1.966
109.152	5.131	2.020	1.968
109.202	4.945	2.020	1.971
109.252	4.697	2.020	1.962
109.302	5.503	2.020	1.955
109.352	6.249	2.020	1.969
109.402	4.872	2.020	1.969
109.452	4.935	2.020	1.966
109.502	5.185	2.020	1.970
109.552	4.841	2.020	1.969
109.602	4.935	2.020	1.969
109.653	4.872	2.020	1.970
109.703	4.809	2.020	1.970
109.753	4.778	2.020	1.967
109.804	5.176	2.020	1.969
109.854	4.923	2.020	1.970
109.903	4.828	2.020	1.968
109.954	5.081	2.020	1.970
110.004	4.860	2.020	1.969
110.054	4.923	2.020	1.968
110.104	5.018	2.020	1.969
110.154	4.923	2.020	1.969
110.204	4.954	2.020	1.968
110.253	5.081	2.020	1.966
110.303	5.239	2.020	1.973
110.353	4.622	2.020	1.967
110.403	5.197	2.020	1.969
110.454	5.038	2.020	1.970
110.504	4.942	2.020	1.969
110.554	5.006	2.020	1.967
110.605	5.229	2.020	1.970
110.655	4.910	2.020	1.968
110.704	5.069	2.020	1.970
110.755	4.910	2.020	1.966
110.805	5.261	2.020	1.970
110.854	4.960	2.020	1.967
110.904	5.218	2.020	1.968
110.954	5.121	2.020	1.970
111.004	4.928	2.020	1.968
111.054	5.206	2.020	1.968
111.104	5.173	2.020	1.969
111.154	5.075	2.020	1.970
111.204	5.042	2.020	1.968
111.254	5.206	2.020	1.971
111.304	4.994	2.020	1.968
111.354	5.225	2.020	1.969
111.405	5.159	2.020	1.969
111.454	5.192	2.020	1.969
111.504	5.243	2.020	1.969
111.555	5.243	2.020	1.969
111.605	5.177	2.020	1.966
111.654	5.476	2.020	1.965
111.705	5.698	2.020	1.965
111.754	5.630	2.020	1.966
111.804	5.563	2.020	1.956
111.854	6.635	2.020	1.965
111.903	5.685	2.020	1.956
111.954	6.635	2.020	1.959
112.004	6.329	2.020	1.955
112.054	6.870	2.020	1.965
112.104	5.740	2.020	1.961
112.154	6.151	2.020	1.967
112.203	5.603	2.020	1.966
112.253	5.760	2.020	1.962
112.304	6.175	2.020	1.958
112.354	6.520	2.020	1.957
112.404	6.728	2.020	1.966
112.455	5.744	2.020	1.966
112.505	5.779	2.020	1.967
112.555	5.675	2.020	1.969
112.605	5.500	2.020	1.970
112.656	5.446	2.020	1.968
112.706	5.657	2.020	1.971
112.756	5.305	2.020	1.969
112.806	5.552	2.020	1.966
112.856	5.852	2.020	1.971
112.906	5.390	2.020	1.969
112.956	5.567	2.020	1.968
113.007	5.674	2.020	1.972
113.057	5.332	2.020	1.968
113.107	5.690	2.020	1.969
113.158	5.618	2.020	1.968
113.208	5.726	2.020	1.970
113.257	5.597	2.020	1.968
113.308	5.814	2.020	1.968
113.358	5.742	2.020	1.969
113.407	5.633	2.020	1.967
113.458	5.903	2.020	1.968
113.508	5.830	2.020	1.968
113.558	5.794	2.020	1.968
113.608	5.794	2.020	1.966
113.659	6.140	2.020	1.968
113.709	5.845	2.020	1.968
113.759	5.845	2.020	1.966
113.809	6.195	2.020	1.968
113.860	5.971	2.020	1.968
113.910	5.934	2.020	1.968
113.960	5.897	2.020	1.968
114.011	5.986	2.020	1.968
114.061	5.986	2.020	1.965
114.111	6.286	2.020	1.966
114.161	6.174	2.020	1.971
114.212	5.698	2.020	1.967
114.262	6.114	2.020	1.961
114.312	6.871	2.020	1.967
114.362	6.152	2.020	1.968
114.413	6.052	2.020	1.967
114.463	6.205	2.020	1.969
114.513	5.938	2.020	1.966
114.564	6.358	2.020	1.965
114.614	6.450	2.020	1.967
114.664	6.258	2.020	1.967
114.714	6.219	2.020	1.966
114.764	6.373	2.020	1.968
114.814	6.156	2.020	1.967
114.864	6.272	2.020	1.968
114.915	6.233	2.020	1.967
114.964	6.272	2.020	1.967
115.014	6.325	2.020	1.967
115.065	6.325	2.020	1.967
115.115	6.325	2.020	1.968
115.164	6.247	2.020	1.968
115.215	6.338	2.020	1.966
115.265	6.496	2.020	1.969
115.314	6.220	2.020	1.967
115.365	6.510	2.020	1.968
115.415	6.351	2.020	1.967
115.465	6.470	2.020	1.968
115.515	6.351	2.020	1.965
115.565	6.724	2.020	1.967
115.614	6.563	2.020	1.967
115.664	6.483	2.020	1.967
115.714	6.483	2.020	1.970
115.764	6.253	2.020	1.966
115.814	6.657	2.020	1.967
115.865	6.576	2.020	1.968
115.914	6.414	2.020	1.970
115.964	6.303	2.020	1.968
116.015	6.548	2.020	1.967
116.064	6.588	2.020	1.965
116.114	6.970	2.020	1.967
116.165	6.723	2.020	1.968
116.214	6.600	2.020	1.965
116.264	6.929	2.020	1.969
116.315	6.528	2.020	1.967
116.365	6.735	2.020	1.967
116.414	6.777	2.020	1.967
116.464	6.830	2.020	1.968
116.513	6.663	2.020	1.966
116.564	6.955	2.020	1.964
116.614	7.122	2.020	1.963
116.663	7.388	2.020	1.965
116.713	7.052	2.020	1.966
116.764	6.925	2.020	1.966
116.814	6.968	2.020	1.959
116.864	7.869	2.020	1.967
116.915	6.894	2.020	1.966
116.965	6.979	2.020	1.967
117.014	6.852	2.020	1.966
117.065	7.076	2.020	1.966
117.115	7.033	2.020	1.967
117.165	6.947	2.020	1.967
117.214	7.043	2.020	1.967
117.264	7.000	2.020	1.968
117.313	6.828	2.020	1.965
117.364	7.216	2.020	1.966
117.414	7.087	2.020	1.966
117.464	7.087	2.020	1.963
117.514	7.560	2.020	1.969
117.564	6.793	2.020	1.966
117.614	7.184	2.020	1.964
117.664	7.400	2.020	1.967
117.714	7.053	2.020	1.966
117.764	7.194	2.020	1.965
117.814	7.369	2.020	1.966
117.864	7.238	2.020	1.966
117.913	7.292	2.020	1.964
117.964	7.512	2.020	1.967
118.014	7.160	2.020	1.968
118.063	6.983	2.020	1.966
118.114	7.390	2.020	1.966
118.164	7.346	2.020	1.967
118.213	7.213	2.020	1.964
118.264	7.656	2.020	1.966
118.314	7.400	2.020	1.968
118.364	7.176	2.020	1.966
118.414	7.355	2.020	1.967
118.464	7.310	2.020	1.944
118.514	10.000	2.020	1.966
118.564	7.454	2.020	1.964
118.615	7.679	2.020	1.967
118.664	7.274	2.020	1.968
118.714	7.281	2.020	1.968
118.765	7.281	2.020	1.965
118.815	7.598	2.020	1.969
118.864	7.054	2.020	1.966
118.915	7.607	2.020	1.968
118.965	7.288	2.020	1.966
119.015	7.562	2.020	1.967
119.065	7.379	2.020	1.967
119.116	7.432	2.020	1.969
119.166	7.202	2.020	1.967
119.216	7.478	2.020	1.968
119.267	7.386	2.020	1.970
119.317	7.114	2.020	1.969
119.367	7.299	2.020	1.970
119.417	7.114	2.020	1.967
119.468	7.531	2.020	1.968
119.518	7.444	2.020	1.969
119.568	7.257	2.020	1.969
119.619	7.351	2.020	1.965
119.669	7.817	2.020	1.965
119.719	7.817	2.020	1.970
119.769	7.261	2.020	1.967
119.819	7.637	2.020	1.964
119.870	8.012	2.020	1.969
119.920	7.308	2.020	1.966
119.970	7.879	2.020	1.968
120.021	7.595	2.020	1.965
120.071	8.021	2.020	1.969
120.120	7.359	2.020	1.963
120.171	8.314	2.020	1.969
120.221	7.505	2.020	1.965
120.271	7.981	2.020	1.968
120.321	7.552	2.020	1.969
120.372	7.508	2.020	1.969
120.422	7.556	2.020	1.964
120.472	8.275	2.020	1.969
120.523	7.556	2.020	1.967
120.573	7.844	2.020	1.969
120.623	7.556	2.020	1.969
120.673	7.508	2.020	1.967
120.724	7.796	2.020	1.968
120.774	7.604	2.020	1.970
120.823	7.365	2.020	1.967
120.874	7.796	2.020	1.968
120.924	7.700	2.020	1.969
120.973	7.556	2.020	1.967
121.024	7.849	2.020	1.968
121.074	7.656	2.020	1.969
121.123	7.559	2.020	1.967
121.174	7.897	2.020	1.958
121.224	9.214	2.020	1.969
121.274	7.562	2.020	1.968
121.324	7.708	2.020	1.968
121.374	7.708	2.020	1.970
121.424	7.513	2.020	1.972
121.474	7.270	2.020	1.966
121.525	8.053	2.020	1.970
121.575	7.466	2.020	1.970
121.625	7.515	2.020	1.967
121.676	7.906	2.020	1.968
121.726	7.759	2.020	1.971
121.776	7.417	2.020	1.970
121.826	7.565	2.020	1.968
121.876	7.860	2.020	1.971
121.927	7.368	2.020	1.966
121.977	8.259	2.020	1.969
122.027	7.764	2.020	1.967
122.078	8.012	2.020	1.969
122.128	7.714	2.020	1.970
122.177	7.715	2.020	1.968
122.228	8.014	2.020	1.969
122.278	7.865	2.020	1.971
122.328	7.565	2.020	1.969
122.378	7.916	2.020	1.971
122.429	7.615	2.020	1.969
122.479	7.866	2.020	1.969
122.529	7.816	2.020	1.968
122.579	8.069	2.020	1.969
122.630	7.866	2.020	1.971
122.680	7.664	2.020	1.969
122.730	7.866	2.020	1.969
122.781	7.968	2.020	1.967
122.831	8.273	2.020	1.970
122.880	7.815	2.020	1.971
122.931	7.663	2.020	1.970
122.981	7.866	2.020	1.972
123.030	7.610	2.020	1.967
123.081	8.377	2.020	1.969
123.131	7.968	2.020	1.969
123.181	8.122	2.020	1.968
123.231	8.225	2.020	1.940
123.282	10.000	2.020	1.969
123.331	8.070	2.020	1.966
123.381	8.482	2.020	1.961
123.432	9.314	2.020	1.959
123.482	9.677	2.020	1.969
123.531	8.173	2.020	1.968
123.582	8.277	2.020	1.964
123.632	9.007	2.020	1.962
123.682	9.216	2.020	1.972
123.732	7.703	2.020	1.970
123.782	8.016	2.020	1.969
123.832	8.225	2.020	1.964
123.882	9.007	2.020	1.962
123.933	9.216	2.020	1.969
123.983	8.172	2.020	1.974
124.033	7.285	2.020	1.977
124.083	6.868	2.020	1.968
124.133	8.329	2.020	1.976
124.183	7.077	2.020	1.978
124.233	6.764	2.020	1.964
124.284	8.955	2.020	1.978
124.333	6.764	2.020	1.975
124.383	7.181	2.020	1.982
124.434	6.138	2.020	1.968
124.483	8.381	2.020	1.975
124.533	7.233	2.020	1.975
124.584	7.233	2.020	1.954
124.633	10.000	2.020	1.966
124.683	8.694	2.020	1.967
124.734	8.538	2.020	1.975
124.783	7.181	2.020	1.966
124.833	8.694	2.020	1.980
124.883	6.451	2.020	1.978
124.933	6.711	2.020	1.972
124.983	7.703	2.020	1.966
125.034	8.694	2.020	1.981
125.083	6.242	2.020	1.977
125.133	6.816	2.020	1.969
125.184	8.120	2.020	1.971
125.234	7.807	2.020	1.959
125.283	9.738	2.020	1.972
125.334	7.651	2.020	1.967
125.384	8.433	2.020	1.978
125.433	6.711	2.020	1.976
125.484	6.972	2.020	1.973
125.534	7.546	2.020	1.978
125.583	6.659	2.020	1.977
125.634	6.816	2.020	1.976
125.684	7.077	2.020	1.971
125.734	7.807	2.020	1.968
125.784	8.381	2.020	1.976
125.834	6.972	2.020	1.976
125.884	7.077	2.020	1.971
125.934	7.807	2.020	1.976
125.984	6.972	2.020	1.978
126.034	6.711	2.020	1.975
126.084	7.233	2.020	1.978
126.134	6.659	2.020	1.978
126.183	6.659	2.020	1.976
126.233	7.077	2.020	1.959
126.284	9.790	2.020	1.978
126.334	6.711	2.020	1.975
126.384	7.181	2.020	1.975
126.434	7.181	2.020	1.976
126.484	7.025	2.020	1.977
126.534	6.920	2.020	1.974
126.584	7.338	2.020	1.978
126.634	6.764	2.020	1.979
126.684	6.555	2.020	1.976
126.734	7.025	2.020	1.973
126.784	7.546	2.020	1.975
126.834	7.181	2.020	1.975
126.884	7.181	2.020	1.974
126.934	7.285	2.020	1.975
126.984	7.181	2.020	1.975
127.034	7.181	2.020	1.974
127.085	7.285	2.020	1.975
127.134	7.181	2.020	1.975
127.184	7.129	2.020	1.975
127.235	7.181	2.020	1.973
127.285	7.598	2.020	1.975
127.335	7.181	2.020	1.976
127.385	6.972	2.020	1.975
127.435	7.181	2.020	1.973
127.485	7.442	2.020	1.975
127.535	7.233	2.020	1.976
127.585	7.077	2.020	1.974
127.635	7.285	2.020	1.975
127.686	7.181	2.020	1.976
127.736	7.077	2.020	1.974
127.785	7.285	2.020	1.974
127.835	7.285	2.020	1.974
127.886	7.285	2.020	1.973
127.935	7.442	2.020	1.974
127.985	7.338	2.020	1.973
128.036	7.546	2.020	1.972
128.086	7.755	2.020	1.973
128.136	7.546	2.020	1.976
128.186	7.077	2.020	1.974
128.236	7.338	2.020	1.979
128.286	6.555	2.020	1.974
128.336	7.390	2.020	1.974
128.386	7.338	2.020	1.975
128.436	7.129	2.020	1.974
128.486	7.390	2.020	1.973
128.537	7.598	2.020	1.975
128.586	7.233	2.020	1.973
128.636	7.494	2.020	1.968
128.687	8.277	2.020	1.976
128.736	6.972	2.020	1.973
128.786	7.494	2.020	1.976
128.837	7.077	2.020	1.975
128.887	7.129	2.020	1.972
128.937	7.651	2.020	1.967
128.988	8.538	2.020	1.961
129.038	9.424	2.020	1.966
129.088	8.694	2.020	1.970
129.138	8.068	2.020	1.968
129.188	8.381	2.020	1.961
129.238	9.424	2.020	1.967
129.288	8.433	2.020	1.967
129.339	8.485	2.020	1.976
129.389	7.077	2.020	1.965
129.438	8.746	2.020	1.975
129.489	7.129	2.020	1.976
129.539	6.972	2.020	1.969
129.588	8.225	2.020	1.970
129.639	7.964	2.020	1.975
129.689	7.129	2.020	1.973
129.738	7.598	2.020	1.972
129.789	7.703	2.020	1.968
129.839	8.381	2.020	1.973
129.889	7.442	2.020	1.976
129.939	7.025	2.020	1.966
129.989	8.642	2.020	1.969
130.039	8.120	2.020	1.976
130.089	6.972	2.020	1.976
130.140	7.025	2.020	1.981
130.190	6.190	2.020	1.968
130.239	8.329	2.020	1.976
130.290	7.077	2.020	1.977
130.340	6.816	2.020	1.966
130.389	8.642	2.020	1.973
130.440	7.546	2.020	1.976
130.490	6.972	2.020	1.977
130.540	6.868	2.020	1.981
130.590	6.242	2.020	1.973
130.640	7.598	2.020	1.979
130.690	6.503	2.020	1.976
130.740	6.972	2.020	1.980
130.791	6.346	2.020	1.973
130.840	7.546	2.020	1.976
130.890	7.077	2.020	1.977
130.941	6.816	2.020	1.969
130.990	8.172	2.020	1.972
131.040	7.703	2.020	1.968
131.090	8.329	2.020	1.977
131.139	6.816	2.020	1.975
131.189	7.181	2.020	1.970
131.240	8.068	2.020	1.980
131.289	6.451	2.020	1.976
131.339	7.025	2.020	1.974
131.390	7.390	2.020	1.969
131.440	8.120	2.020	1.961
131.490	9.424	2.020	1.977
131.540	6.868	2.020	1.972
131.590	7.703	2.020	1.966
131.640	8.694	2.020	1.963
131.690	9.164	2.020	1.975
131.740	7.181	2.020	1.971
131.790	7.807	2.020	1.968
131.840	8.329	2.020	1.974
131.891	7.390	2.020	1.970
131.941	7.964	2.020	1.975
131.991	7.233	2.020	1.975
132.042	7.129	2.020	1.981
132.092	6.294	2.020	1.983
132.142	6.018	2.020	1.974
132.192	7.436	2.020	1.979
132.242	6.596	2.020	1.979
132.292	6.584	2.020	1.980
132.343	6.478	2.020	1.977
132.393	6.901	2.020	1.977
132.443	6.901	2.020	1.977
132.493	6.944	2.020	1.977
132.543	6.997	2.020	1.973
132.594	7.581	2.020	1.977
132.643	6.997	2.020	1.974
132.693	7.475	2.020	1.973
132.744	7.581	2.020	1.973
132.794	7.628	2.020	1.975
132.844	7.414	2.020	1.973
132.895	7.735	2.020	1.973
132.945	7.681	2.020	1.974
132.995	7.567	2.020	1.973
133.045	7.728	2.020	1.972
133.097	7.997	2.020	1.969
133.147	8.533	2.020	1.973
133.197	7.721	2.020	1.974
133.247	7.667	2.020	1.972
133.298	7.937	2.020	1.974
133.348	7.713	2.020	1.974
133.398	7.713	2.020	1.973
133.448	7.767	2.020	1.976
133.498	7.386	2.020	1.976
133.547	7.277	2.020	1.973
133.598	7.931	2.020	1.973
133.648	7.876	2.020	1.977
133.698	7.223	2.020	1.974
133.748	7.604	2.020	1.971
133.798	8.203	2.020	1.970
133.848	8.421	2.020	1.976
133.898	7.386	2.020	1.974
133.949	7.713	2.020	1.975
133.999	7.495	2.020	1.975
134.048	7.495	2.020	1.975
134.099	7.595	2.020	1.976
134.149	7.431	2.020	1.976
134.198	7.376	2.020	1.976
134.249	7.321	2.020	1.975
134.299	7.640	2.020	1.975
134.349	7.530	2.020	1.976
134.399	7.475	2.020	1.974
134.450	7.796	2.020	1.975
134.500	7.630	2.020	1.978
134.550	7.186	2.020	1.975
134.600	7.630	2.020	1.974
134.651	7.786	2.020	1.975
134.700	7.619	2.020	1.973
134.750	8.009	2.020	1.975
134.801	7.675	2.020	1.977
134.851	7.327	2.020	1.975
134.901	7.664	2.020	1.975
134.951	7.720	2.020	1.976
135.001	7.595	2.020	1.976
135.051	7.595	2.020	1.977
135.101	7.482	2.020	1.976
135.151	7.652	2.020	1.977
135.201	7.469	2.020	1.974
135.251	7.923	2.020	1.976
135.301	7.582	2.020	1.976
135.351	7.696	2.020	1.976
135.401	7.683	2.020	1.978
135.452	7.341	2.020	1.976
135.501	7.626	2.020	1.974
135.551	8.025	2.020	1.977
135.602	7.555	2.020	1.976
135.652	7.727	2.020	1.975
135.701	7.899	2.020	1.976
135.752	7.771	2.020	1.976
135.802	7.771	2.020	1.979
135.852	7.251	2.020	1.976
135.903	7.771	2.020	1.978
135.953	7.467	2.020	1.977
136.003	7.699	2.020	1.975
136.053	7.931	2.020	1.973
136.104	8.279	2.020	1.980
136.153	7.217	2.020	1.976
136.203	7.917	2.020	1.975
136.254	8.034	2.020	1.977
136.303	7.785	2.020	1.976
136.353	7.903	2.020	1.973
136.404	8.548	2.020	1.974
136.454	8.313	2.020	1.975
136.504	8.079	2.020	1.977
136.554	7.785	2.020	1.976
136.605	7.844	2.020	1.975
136.655	8.079	2.020	1.977
136.704	7.727	2.020	1.979
136.754	7.433	2.020	1.980
136.804	7.140	2.020	1.979
136.854	7.433	2.020	1.977
136.905	7.828	2.020	1.979
136.954	7.415	2.020	1.981
137.004	7.061	2.020	1.979
137.055	7.415	2.020	1.980
137.104	7.238	2.020	1.981
137.154	7.061	2.020	1.979
137.205	7.474	2.020	1.980
137.255	7.297	2.020	1.981
137.304	7.061	2.020	1.978
137.355	7.651	2.020	1.964
137.405	10.000	2.020	1.979
137.454	7.397	2.020	1.976
137.505	7.931	2.020	1.980
137.555	7.278	2.020	1.978
137.605	7.634	2.020	1.980
137.654	7.219	2.020	1.978
137.704	7.694	2.020	1.980
137.754	7.219	2.020	1.981
137.804	7.139	2.020	1.980
137.854	7.318	2.020	1.980
137.904	7.259	2.020	1.977
137.955	7.796	2.020	1.980
138.005	7.259	2.020	1.979
138.055	7.438	2.020	1.977
138.104	7.915	2.020	1.973
138.155	8.618	2.020	1.981
138.205	7.118	2.020	1.979
138.254	7.598	2.020	1.980
138.305	7.418	2.020	1.981
138.355	7.238	2.020	1.980
138.404	7.418	2.020	1.980
138.454	7.298	2.020	1.981
138.504	7.178	2.020	1.981
138.554	7.217	2.020	1.979
138.604	7.519	2.020	1.982
138.653	6.976	2.020	1.979
138.703	7.579	2.020	1.978
138.753	7.760	2.020	1.981
138.803	7.278	2.020	1.973
138.853	8.665	2.020	1.979
138.903	7.519	2.020	1.981
138.952	7.196	2.020	1.980
139.002	7.378	2.020	1.981
139.051	7.317	2.020	1.982
139.101	7.135	2.020	1.983
139.150	6.892	2.020	1.981
139.200	7.196	2.020	1.980
139.251	7.438	2.020	1.982
139.300	7.014	2.020	1.983
139.350	6.990	2.020	1.978
139.401	7.905	2.020	1.976
139.451	8.210	2.020	1.981
139.500	7.295	2.020	1.981
139.551	7.234	2.020	1.979
139.601	7.722	2.020	1.981
139.651	7.295	2.020	1.980
139.701	7.478	2.020	1.978
139.751	7.825	2.020	1.978
139.801	7.886	2.020	1.981
139.851	7.334	2.020	1.980
139.902	7.518	2.020	1.981
139.952	7.334	2.020	1.980
140.002	7.579	2.020	1.978
140.052	7.825	2.020	1.979
140.103	7.641	2.020	1.980
140.152	7.579	2.020	1.978
140.202	7.866	2.020	1.980
140.253	7.620	2.020	1.980
140.303	7.558	2.020	1.979
140.352	7.805	2.020	1.979
140.403	7.681	2.020	1.979
140.453	7.743	2.020	1.980
140.503	7.558	2.020	1.979
140.553	7.681	2.020	1.980
140.603	7.598	2.020	1.980
140.652	7.660	2.020	1.978
140.703	7.908	2.020	1.982
140.752	7.226	2.020	1.980
140.802	7.598	2.020	1.979
140.853	7.846	2.020	1.981
140.903	7.412	2.020	1.981
140.952	7.474	2.020	1.982
141.003	7.202	2.020	1.981
141.052	7.389	2.020	1.976
141.101	8.323	2.020	1.981
141.152	7.451	2.020	1.981
141.201	7.514	2.020	1.979
141.251	7.825	2.020	1.983
141.302	7.140	2.020	1.977
141.351	8.136	2.020	1.969
141.401	9.869	2.020	1.977
141.451	8.304	2.020	1.970
141.500	9.682	2.020	1.978
141.550	7.991	2.020	1.978
141.600	7.991	2.020	1.978
141.650	8.116	2.020	1.980
141.700	7.616	2.020	1.983
141.750	7.177	2.020	1.980
141.800	7.718	2.020	1.985
141.850	6.774	2.020	1.985
141.899	6.837	2.020	1.986
141.949	6.585	2.020	1.985
142.000	6.774	2.020	1.985
142.049	6.774	2.020	1.984
142.099	7.026	2.020	1.981
142.150	7.466	2.020	1.982
142.199	7.442	2.020	1.978
142.248	8.138	2.020	1.981
142.299	7.632	2.020	1.978
142.348	8.074	2.020	1.978
142.398	8.201	2.020	1.976
142.448	8.517	2.020	1.979
142.498	8.011	2.020	1.976
142.548	8.454	2.020	1.979
142.599	7.948	2.020	1.980
142.649	7.798	2.020	1.980
142.699	7.862	2.020	1.982
142.749	7.417	2.020	1.980
142.799	7.798	2.020	1.982
142.849	7.480	2.020	1.982
142.899	7.353	2.020	1.984
142.950	7.035	2.020	1.983
142.999	7.226	2.020	1.984
143.049	7.071	2.020	1.981
143.100	7.582	2.020	1.983
143.149	7.263	2.020	1.981
143.199	7.646	2.020	1.982
143.250	7.519	2.020	1.982
143.299	7.455	2.020	1.968
143.349	10.000	2.020	1.981
143.399	7.646	2.020	1.973
143.449	9.356	2.020	1.981
143.499	7.685	2.020	1.976
143.549	8.713	2.020	1.982
143.598	7.557	2.020	1.978
143.648	8.199	2.020	1.982
143.698	7.493	2.020	1.982
143.747	7.493	2.020	1.982
143.798	7.428	2.020	1.986
143.848	6.820	2.020	1.984
143.898	7.143	2.020	1.985
143.948	6.885	2.020	1.985
143.997	6.885	2.020	1.987
144.047	6.627	2.020	1.982
144.098	7.531	2.020	1.982
144.148	7.466	2.020	1.982
144.197	7.531	2.020	1.980
144.248	8.023	2.020	1.981
144.298	7.699	2.020	1.981
144.347	7.699	2.020	1.979
144.398	8.153	2.020	1.981
144.448	7.828	2.020	1.980
144.497	8.023	2.020	1.979
144.548	8.088	2.020	1.981
144.598	7.699	2.020	1.982
144.647	7.634	2.020	1.979
144.697	8.259	2.020	1.983
144.747	7.411	2.020	1.984
144.797	7.281	2.020	1.981
144.847	7.737	2.020	1.985
144.897	7.085	2.020	1.984
144.947	7.215	2.020	1.983
144.997	7.476	2.020	1.981
145.047	7.868	2.020	1.985
145.097	7.120	2.020	1.982
145.147	7.579	2.020	1.983
145.198	7.383	2.020	1.982
145.248	7.710	2.020	1.983
145.297	7.448	2.020	1.982
145.348	7.579	2.020	1.983
145.398	7.383	2.020	1.983
145.448	7.448	2.020	1.985
145.498	7.156	2.020	1.983
145.548	7.551	2.020	1.984
145.598	7.222	2.020	1.984
145.648	7.288	2.020	1.981
145.698	7.815	2.020	1.983
145.748	7.485	2.020	1.977
145.798	8.605	2.020	1.983
145.848	7.551	2.020	1.978
145.898	8.515	2.020	1.983
145.948	7.522	2.020	1.981
145.999	7.853	2.020	1.983
146.049	7.588	2.020	1.982
146.098	7.721	2.020	1.981
146.149	7.919	2.020	1.984
146.199	7.324	2.020	1.982
146.248	7.655	2.020	1.984
146.299	7.426	2.020	1.984
146.349	7.360	2.020	1.984
146.399	7.293	2.020	1.981
146.449	7.892	2.020	1.983
146.499	7.626	2.020	1.983
146.549	7.493	2.020	1.985
146.599	7.227	2.020	1.982
146.649	7.759	2.020	1.984
146.699	7.396	2.020	1.982
146.749	7.730	2.020	1.984
146.799	7.396	2.020	1.984
146.849	7.463	2.020	1.981
146.899	7.997	2.020	1.984
146.950	7.463	2.020	1.984
147.000	7.329	2.020	1.984
147.050	7.463	2.020	1.982
147.100	7.768	2.020	1.978
147.151	8.708	2.020	1.983
147.201	7.566	2.020	1.982
147.251	7.835	2.020	1.983
147.301	7.633	2.020	1.984
147.350	7.365	2.020	1.983
147.400	7.566	2.020	1.985
147.450	7.230	2.020	1.984
147.500	7.365	2.020	1.982
147.550	7.806	2.020	1.984
147.601	7.468	2.020	1.979
147.650	8.480	2.020	1.981
147.700	8.008	2.020	1.983
147.751	7.738	2.020	1.983
147.800	7.671	2.020	1.983
147.850	7.603	2.020	1.979
147.901	8.548	2.020	1.983
147.951	7.775	2.020	1.983
148.000	7.775	2.020	1.982
148.050	7.979	2.020	1.984
148.099	7.436	2.020	1.976
148.149	9.200	2.020	1.985
148.199	7.368	2.020	1.982
148.248	7.911	2.020	1.982
148.298	7.911	2.020	1.985
148.347	7.336	2.020	1.982
148.397	7.949	2.020	1.984
148.447	7.472	2.020	1.984
148.496	7.472	2.020	1.984
148.547	7.608	2.020	1.983
148.597	7.676	2.020	1.983
148.647	7.745	2.020	1.982
148.697	8.017	2.020	1.982
148.748	7.919	2.020	1.983
148.798	7.782	2.020	1.983
148.847	7.713	2.020	1.982
148.898	8.056	2.020	1.986
148.947	7.234	2.020	1.983
148.997	7.782	2.020	1.983
149.048	7.850	2.020	1.987
149.098	6.960	2.020	1.988
149.148	6.649	2.020	1.983
149.199	7.819	2.020	1.986
149.249	7.268	2.020	1.984
149.299	7.681	2.020	1.983
149.349	7.819	2.020	1.982
149.400	8.025	2.020	1.984
149.450	7.544	2.020	1.984
149.499	7.612	2.020	1.982
149.549	8.132	2.020	1.984
149.599	7.579	2.020	1.984
149.649	7.648	2.020	1.980
149.700	8.478	2.020	1.984
149.750	7.718	2.020	1.985
149.800	7.510	2.020	1.981
149.850	8.201	2.020	1.985
149.900	7.510	2.020	1.984
149.949	7.648	2.020	1.982
149.999	8.171	2.020	1.985
150.049	7.546	2.020	1.984
150.098	7.615	2.020	1.980
150.148	8.518	2.020	1.983
150.198	7.823	2.020	1.984
150.248	7.615	2.020	1.984
150.298	7.754	2.020	1.984
150.348	7.615	2.020	1.986
150.398	7.372	2.020	1.985
150.449	7.581	2.020	1.987
150.499	7.162	2.020	1.986
150.548	7.372	2.020	1.976
150.598	9.326	2.020	1.987
150.647	7.162	2.020	1.977
150.697	9.116	2.020	1.985
150.747	7.441	2.020	1.983
150.796	8.037	2.020	1.983
150.847	8.037	2.020	1.982
150.896	8.107	2.020	1.985
150.945	7.546	2.020	1.984
150.996	7.687	2.020	1.986
151.046	7.336	2.020	1.987
151.096	7.056	2.020	1.983
151.147	7.967	2.020	1.986
151.197	7.441	2.020	1.986
151.247	7.441	2.020	1.983
151.297	8.004	2.020	1.984
151.348	7.793	2.020	1.985
151.398	7.511	2.020	1.985
151.448	7.511	2.020	1.981
151.498	8.356	2.020	1.985
151.548	7.511	2.020	1.984
151.597	7.829	2.020	1.983
151.648	8.112	2.020	1.980
151.698	8.607	2.020	1.981
151.747	8.395	2.020	1.983
151.798	7.970	2.020	1.983
151.848	7.970	2.020	1.985
151.897	7.617	2.020	1.983
151.948	7.970	2.020	1.985
151.998	7.546	2.020	1.985
152.047	7.581	2.020	1.984
152.097	7.936	2.020	1.983
152.147	8.149	2.020	1.987
152.196	7.296	2.020	1.986
152.246	7.509	2.020	1.982
152.295	8.220	2.020	1.973
152.345	10.000	2.020	1.971
152.395	10.000	2.020	1.970
152.445	10.000	2.020	1.976
152.495	9.686	2.020	1.973
152.545	10.000	2.020	1.968
152.595	10.000	2.020	1.974
152.645	9.972	2.020	1.981
152.696	8.615	2.020	1.979
152.745	8.901	2.020	1.977
152.795	9.329	2.020	1.987
152.846	7.291	2.020	1.992
152.896	6.072	2.020	1.991
152.945	6.287	2.020	1.992
152.996	6.215	2.020	2.004
153.046	3.489	2.020	2.009
153.097	2.341	2.020	2.011
153.147	1.911	2.020	2.006
153.198	3.131	2.020	1.999
153.247	4.586	2.020	1.997
153.297	5.091	2.020	1.988
153.348	7.180	2.020	1.979
153.398	8.982	2.020	1.974
153.447	10.000	2.020	1.967
153.498	10.000	2.020	1.966
153.548	10.000	2.020	1.968
153.597	10.000	2.020	1.965
153.648	10.000	2.020	1.966
153.698	10.000	2.020	1.967
153.747	10.000	2.020	1.966
153.798	10.000	2.020	1.968
153.848	10.000	2.020	1.970
153.898	10.000	2.020	1.971
153.948	10.000	2.020	1.972
153.999	10.000	2.020	1.973
154.048	10.000	2.020	1.975
154.098	9.936	2.020	1.978
154.149	9.281	2.020	1.983
154.199	8.263	2.020	1.990
154.248	6.736	2.020	1.995
154.299	5.646	2.020	1.999
154.348	4.773	2.020	1.999
154.397	4.773	2.020	2.008
154.448	2.603	2.020	2.000
154.497	4.429	2.020	2.008
154.547	2.676	2.020	2.012
154.598	1.727	2.020	2.005
154.648	3.261	2.020	1.989
154.697	6.840	2.020	1.989
154.748	6.840	2.020	1.976
154.798	9.834	2.020	1.962
154.847	10.000	2.020	1.949
154.898	10.000	2.020	1.962
154.948	10.000	2.020	1.955
154.997	10.000	2.020	1.952
155.048	10.000	2.020	1.954
155.098	10.000	2.020	1.959
155.148	10.000	2.020	1.962
155.198	10.000	2.020	1.964
155.249	10.000	2.020	1.950
155.298	10.000	2.020	1.958
155.348	10.000	2.020	1.957
155.398	10.000	2.020	1.969
155.447	10.000	2.020	1.968
155.498	10.000	2.020	1.967
155.548	10.000	2.020	1.976
155.597	9.848	2.020	1.977
155.648	9.627	2.020	1.982
155.698	8.634	2.020	1.983
155.748	8.412	2.020	1.984
155.798	8.190	2.020	1.990
155.849	6.709	2.020	2.001
155.899	4.266	2.020	2.014
155.949	1.306	2.020	2.024
155.999	0.000	2.020	2.019
156.049	0.121	2.020	2.030
156.098	0.000	2.020	2.018
156.149	0.568	2.020	2.021
156.198	0.000	2.020	2.008
156.247	2.724	2.020	1.997
156.298	5.326	2.020	1.987
156.348	7.557	2.020	1.977
156.398	9.787	2.020	1.968
156.449	10.000	2.020	1.959
156.499	10.000	2.020	1.957
156.549	10.000	2.020	1.953
156.599	10.000	2.020	1.956
156.650	10.000	2.020	1.957
156.699	10.000	2.020	1.953
156.749	10.000	2.020	1.952
156.800	10.000	2.020	1.958
156.850	10.000	2.020	1.959
156.899	10.000	2.020	1.960
156.950	10.000	2.020	1.958
157.000	10.000	2.020	1.967
157.049	10.000	2.020	1.963
157.100	10.000	2.020	1.962
157.150	10.000	2.020	1.970
157.200	10.000	2.020	1.974
157.250	10.000	2.020	1.973
157.300	10.000	2.020	1.975
157.350	10.000	2.020	1.989
157.400	7.129	2.020	2.000
157.451	4.643	2.020	2.011
157.501	2.082	2.020	2.023
157.551	0.000	2.020	2.027
157.601	0.000	2.020	2.027
157.651	0.000	2.020	2.010
157.700	2.242	2.020	2.006
157.751	3.150	2.020	2.000
157.801	4.739	2.020	1.992
157.851	6.403	2.020	1.971
157.901	10.000	2.020	1.972
157.951	10.000	2.020	1.964
158.000	10.000	2.020	1.955
158.051	10.000	2.020	1.951
158.101	10.000	2.020	1.962
158.151	10.000	2.020	1.961
158.201	10.000	2.020	1.957
158.251	10.000	2.020	1.952
158.301	10.000	2.020	1.957
158.351	10.000	2.020	1.960
158.401	10.000	2.020	1.952
158.451	10.000	2.020	1.962
158.501	10.000	2.020	1.965
158.552	10.000	2.020	1.966
158.602	10.000	2.020	1.958
158.651	10.000	2.020	1.968
158.702	10.000	2.020	1.975
158.752	10.000	2.020	1.983
158.802	8.747	2.020	1.988
158.852	7.559	2.020	1.998
158.903	5.107	2.020	2.006
158.953	3.267	2.020	2.014
159.003	1.352	2.020	2.019
159.053	0.279	2.020	2.023
159.103	0.000	2.020	2.016
159.152	0.969	2.020	2.005
159.202	3.574	2.020	1.992
159.252	6.486	2.020	1.984
159.302	8.478	2.020	1.982
159.353	8.861	2.020	1.973
159.403	10.000	2.020	1.962
159.452	10.000	2.020	1.957
159.503	10.000	2.020	1.961
159.553	10.000	2.020	1.951
159.602	10.000	2.020	1.951
159.653	10.000	2.020	1.962
159.703	10.000	2.020	1.960
159.752	10.000	2.020	1.954
159.803	10.000	2.020	1.958
159.853	10.000	2.020	1.965
159.903	10.000	2.020	1.969
159.953	10.000	2.020	1.973
160.004	10.000	2.020	1.965
160.053	10.000	2.020	1.977
160.103	10.000	2.020	1.987
160.154	7.712	2.020	1.992
160.204	6.639	2.020	2.003
160.254	3.880	2.020	2.011
160.304	2.118	2.020	2.017
160.355	0.815	2.020	2.028
160.405	0.000	2.020	2.031
160.455	0.000	2.020	2.025
160.506	0.000	2.020	2.018
160.556	0.585	2.020	2.007
160.606	3.114	2.020	1.995
160.656	5.796	2.020	1.982
160.707	8.938	2.020	1.977
160.756	10.000	2.020	1.968
160.806	10.000	2.020	1.964
160.857	10.000	2.020	1.965
160.907	10.000	2.020	1.964
160.957	10.000	2.020	1.965
161.007	10.000	2.020	1.964
161.058	10.000	2.020	1.963
161.108	10.000	2.020	1.966
161.158	10.000	2.020	1.963
161.208	10.000	2.020	1.965
161.258	10.000	2.020	1.967
161.307	10.000	2.020	1.968
161.358	10.000	2.020	1.970
161.407	10.000	2.020	1.973
161.457	10.000	2.020	1.976
161.508	10.000	2.020	1.980
161.557	9.321	2.020	1.986
161.607	8.095	2.020	1.988
161.658	7.405	2.020	1.998
161.708	5.107	2.020	2.008
161.757	2.884	2.020	2.015
161.808	1.122	2.020	2.026
161.858	0.000	2.020	2.036
161.907	0.000	2.020	2.033
161.958	0.000	2.020	2.027
162.008	0.000	2.020	2.016
162.058	0.969	2.020	2.003
162.108	4.110	2.020	1.991
162.158	6.869	2.020	1.981
162.208	9.091	2.020	1.972
162.258	10.000	2.020	1.965
162.309	10.000	2.020	1.962
162.359	10.000	2.020	1.965
162.409	10.000	2.020	1.963
162.459	10.000	2.020	1.963
162.510	10.000	2.020	1.965
162.559	10.000	2.020	1.964
162.609	10.000	2.020	1.965
162.660	10.000	2.020	1.966
162.710	10.000	2.020	1.966
162.759	10.000	2.020	1.964
162.810	10.000	2.020	1.966
162.860	10.000	2.020	1.973
162.910	10.000	2.020	1.971
162.960	10.000	2.020	1.976
163.010	10.000	2.020	1.984
163.060	8.402	2.020	1.990
163.110	7.022	2.020	1.999
163.160	5.030	2.020	2.009
163.210	2.578	2.020	2.018
163.260	0.585	2.020	2.028
163.311	0.000	2.020	2.035
163.361	0.000	2.020	2.034
163.410	0.000	2.020	2.025
163.461	0.000	2.020	2.016
163.511	1.045	2.020	2.003
163.561	3.957	2.020	1.991
163.611	6.869	2.020	1.980
163.661	9.398	2.020	1.972
163.711	10.000	2.020	1.963
163.761	10.000	2.020	1.962
163.811	10.000	2.020	1.964
163.861	10.000	2.020	1.965
163.910	10.000	2.020	1.963
163.960	10.000	2.020	1.964
164.010	10.000	2.020	1.965
164.061	10.000	2.020	1.964
164.110	10.000	2.020	1.964
164.160	10.000	2.020	1.966
164.210	10.000	2.020	1.965
164.259	10.000	2.020	1.969
164.309	10.000	2.020	1.970
164.360	10.000	2.020	1.975
164.410	10.000	2.020	1.978
164.459	9.934	2.020	1.983
164.510	8.785	2.020	1.988
164.559	7.405	2.020	1.995
164.609	5.796	2.020	1.996
164.659	5.566	2.020	2.013
164.708	1.735	2.020	2.009
164.758	2.578	2.020	2.027
164.808	0.000	2.020	2.029
164.857	0.000	2.020	2.023
164.908	0.000	2.020	2.027
164.958	0.000	2.020	2.013
165.007	1.658	2.020	1.994
165.057	6.179	2.020	1.990
165.107	7.099	2.020	1.979
165.157	9.628	2.020	1.968
165.207	10.000	2.020	1.965
165.257	10.000	2.020	1.964
165.307	10.000	2.020	1.962
165.358	10.000	2.020	1.964
165.407	10.000	2.020	1.964
165.457	10.000	2.020	1.963
165.508	10.000	2.020	1.962
165.558	10.000	2.020	1.959
165.608	10.000	2.020	1.964
165.658	10.000	2.020	1.966
165.708	10.000	2.020	1.969
165.757	10.000	2.020	1.959
165.807	10.000	2.020	1.972
165.858	10.000	2.020	1.976
165.908	10.000	2.020	1.977
165.958	9.968	2.020	1.975
166.008	10.000	2.020	1.979
166.059	9.510	2.020	1.987
166.109	7.755	2.020	2.003
166.159	4.093	2.020	2.019
166.210	0.278	2.020	2.018
166.259	0.507	2.020	2.032
166.309	0.000	2.020	2.049
166.360	0.000	2.020	2.049
166.410	0.000	2.020	2.043
166.460	0.000	2.020	2.028
166.510	0.000	2.020	2.008
166.560	2.708	2.020	1.987
166.609	7.722	2.020	1.986
166.659	7.874	2.020	1.972
166.709	10.000	2.020	1.967
166.758	10.000	2.020	1.964
166.808	10.000	2.020	1.961
166.857	10.000	2.020	1.963
166.907	10.000	2.020	1.963
166.957	10.000	2.020	1.968
167.007	10.000	2.020	1.962
167.058	10.000	2.020	1.965
167.108	10.000	2.020	1.966
167.157	10.000	2.020	1.964
167.208	10.000	2.020	1.967
167.257	10.000	2.020	1.968
167.307	10.000	2.020	1.968
167.358	10.000	2.020	1.970
167.408	10.000	2.020	1.975
167.457	10.000	2.020	1.977
167.508	9.991	2.020	1.981
167.558	8.973	2.020	1.987
167.607	7.623	2.020	1.991
167.657	6.573	2.020	1.994
167.708	5.973	2.020	2.007
167.758	3.048	2.020	2.014
167.807	1.323	2.020	2.024
167.857	0.000	2.020	2.027
167.907	0.000	2.020	2.026
167.957	0.000	2.020	2.018
168.007	0.346	2.020	2.010
168.057	2.288	2.020	1.998
168.107	5.125	2.020	1.989
168.158	7.142	2.020	1.976
168.208	10.000	2.020	1.964
168.257	10.000	2.020	1.962
168.308	10.000	2.020	1.960
168.358	10.000	2.020	1.965
168.408	10.000	2.020	1.963
168.458	10.000	2.020	1.964
168.508	10.000	2.020	1.964
168.558	10.000	2.020	1.964
168.608	10.000	2.020	1.965
168.658	10.000	2.020	1.967
168.708	10.000	2.020	1.964
168.758	10.000	2.020	1.967
168.808	10.000	2.020	1.969
168.858	10.000	2.020	1.970
168.908	10.000	2.020	1.972
168.958	10.000	2.020	1.975
169.007	10.000	2.020	1.977
169.058	9.670	2.020	1.983
169.108	8.338	2.020	1.991
169.158	6.532	2.020	1.999
169.208	4.690	2.020	2.008
169.259	2.700	2.020	2.019
169.309	0.121	2.020	2.030
169.358	0.000	2.020	2.036
169.409	0.000	2.020	2.035
169.459	0.000	2.020	2.030
169.508	0.000	2.020	2.000
169.558	4.596	2.020	2.007
169.608	2.835	2.020	1.993
169.658	6.136	2.020	1.983
169.708	8.411	2.020	1.972
169.759	10.000	2.020	1.968
169.809	10.000	2.020	1.964
169.859	10.000	2.020	1.965
169.910	10.000	2.020	1.964
169.960	10.000	2.020	1.964
170.009	10.000	2.020	1.964
170.060	10.000	2.020	1.964
170.110	10.000	2.020	1.965
170.160	10.000	2.020	1.964
170.210	10.000	2.020	1.966
170.259	10.000	2.020	1.966
170.309	10.000	2.020	1.967
170.359	10.000	2.020	1.969
170.409	10.000	2.020	1.971
170.459	10.000	2.020	1.971
170.509	10.000	2.020	1.974
170.559	10.000	2.020	1.981
170.609	8.700	2.020	1.985
170.659	7.900	2.020	1.994
170.710	5.791	2.020	2.001
170.760	4.337	2.020	2.009
170.810	2.508	2.020	2.015
170.861	1.060	2.020	2.026
170.910	0.000	2.020	2.029
170.960	0.000	2.020	2.028
171.011	0.000	2.020	2.021
171.061	0.000	2.020	2.009
171.111	2.508	2.020	1.998
171.161	4.946	2.020	1.985
171.211	7.757	2.020	1.977
171.260	9.486	2.020	1.970
171.311	10.000	2.020	1.959
171.361	10.000	2.020	1.964
171.411	10.000	2.020	1.963
171.461	10.000	2.020	1.963
171.512	10.000	2.020	1.965
171.562	10.000	2.020	1.965
171.612	10.000	2.020	1.964
171.663	10.000	2.020	1.964
171.713	10.000	2.020	1.967
171.763	10.000	2.020	1.967
171.813	10.000	2.020	1.966
171.864	10.000	2.020	1.972
171.913	10.000	2.020	1.973
171.963	10.000	2.020	1.974
172.013	10.000	2.020	1.981
172.063	8.472	2.020	1.986
172.113	7.544	2.020	1.992
172.164	6.044	2.020	2.000
172.213	4.330	2.020	2.007
172.262	2.759	2.020	2.016
172.312	0.974	2.020	2.023
172.361	0.000	2.020	2.023
172.411	0.000	2.020	2.025
172.462	0.000	2.020	2.018
172.511	0.472	2.020	2.007
172.562	2.747	2.020	1.997
172.612	5.093	2.020	1.985
172.662	7.581	2.020	1.976
172.712	9.500	2.020	1.970
172.762	10.000	2.020	1.966
172.812	10.000	2.020	1.964
172.862	10.000	2.020	1.962
172.913	10.000	2.020	1.963
172.963	10.000	2.020	1.964
173.013	10.000	2.020	1.961
173.063	10.000	2.020	1.963
173.114	10.000	2.020	1.964
173.164	10.000	2.020	1.965
173.213	10.000	2.020	1.964
173.264	10.000	2.020	1.965
173.314	10.000	2.020	1.969
173.363	10.000	2.020	1.970
173.414	10.000	2.020	1.971
173.464	10.000	2.020	1.978
173.514	9.131	2.020	1.982
173.564	8.215	2.020	1.988
173.615	6.845	2.020	1.998
173.665	4.672	2.020	2.006
173.714	2.919	2.020	2.013
173.765	1.447	2.020	2.027
173.814	0.000	2.020	2.033
173.863	0.000	2.020	2.032
173.913	0.000	2.020	2.026
173.963	0.000	2.020	2.004
174.013	3.394	2.020	2.002
174.064	3.883	2.020	1.991
174.113	6.116	2.020	1.979
174.164	8.767	2.020	1.973
174.214	10.000	2.020	1.967
174.263	10.000	2.020	1.963
174.314	10.000	2.020	1.963
174.364	10.000	2.020	1.963
174.414	10.000	2.020	1.962
174.463	10.000	2.020	1.963
174.514	10.000	2.020	1.962
174.564	10.000	2.020	1.965
174.614	10.000	2.020	1.965
174.664	10.000	2.020	1.965
174.714	10.000	2.020	1.968
174.764	10.000	2.020	1.968
174.814	10.000	2.020	1.972
174.864	10.000	2.020	1.974
174.914	9.722	2.020	1.976
174.964	9.377	2.020	1.981
175.014	8.201	2.020	1.987
175.064	7.095	2.020	1.995
175.114	5.367	2.020	2.001
175.165	4.054	2.020	2.008
175.215	2.452	2.020	2.015
175.264	1.145	2.020	2.020
175.315	0.000	2.020	2.019
175.365	0.250	2.020	2.018
175.415	0.526	2.020	2.008
175.465	2.452	2.020	1.998
175.515	4.654	2.020	1.989
175.565	6.481	2.020	1.981
175.615	8.193	2.020	1.972
175.665	10.000	2.020	1.966
175.715	10.000	2.020	1.965
175.765	10.000	2.020	1.964
175.815	10.000	2.020	1.966
175.865	10.000	2.020	1.965
175.915	10.000	2.020	1.966
175.965	10.000	2.020	1.965
176.015	10.000	2.020	1.965
176.066	10.000	2.020	1.965
176.116	10.000	2.020	1.968
176.166	10.000	2.020	1.967
176.216	10.000	2.020	1.968
176.267	10.000	2.020	1.973
176.316	9.789	2.020	1.973
176.365	9.878	2.020	1.976
176.416	9.132	2.020	1.983
176.465	7.775	2.020	1.987
176.515	6.826	2.020	1.995
176.566	5.130	2.020	2.004
176.616	3.231	2.020	2.014
176.666	1.332	2.020	2.021
176.716	0.000	2.020	2.025
176.767	0.000	2.020	2.028
176.817	0.000	2.020	2.022
176.867	0.000	2.020	2.011
176.918	1.866	2.020	2.000
176.968	4.093	2.020	1.989
177.018	6.388	2.020	1.978
177.068	8.615	2.020	1.971
177.119	10.000	2.020	1.967
177.169	10.000	2.020	1.964
177.219	10.000	2.020	1.964
177.269	10.000	2.020	1.965
177.320	10.000	2.020	1.959
177.370	10.000	2.020	1.964
177.420	10.000	2.020	1.964
177.470	10.000	2.020	1.963
177.520	10.000	2.020	1.959
177.570	10.000	2.020	1.967
177.620	10.000	2.020	1.968
177.670	10.000	2.020	1.966
177.720	10.000	2.020	1.973
177.770	9.602	2.020	1.976
177.820	9.000	2.020	1.980
177.870	8.131	2.020	1.983
177.920	7.663	2.020	1.995
177.970	5.190	2.020	2.002
178.020	3.635	2.020	2.009
178.071	2.171	2.020	2.016
178.121	0.907	2.020	2.030
178.170	0.000	2.020	2.030
178.221	0.000	2.020	2.022
178.271	0.000	2.020	2.007
178.321	2.703	2.020	1.994
178.371	5.231	2.020	1.991
178.421	5.867	2.020	1.978
178.471	8.515	2.020	1.966
178.521	10.000	2.020	1.968
178.571	10.000	2.020	1.964
178.621	10.000	2.020	1.962
178.671	10.000	2.020	1.945
178.721	10.000	2.020	1.964
178.771	10.000	2.020	1.964
178.821	10.000	2.020	1.963
178.871	10.000	2.020	1.966
178.921	10.000	2.020	1.965
178.970	10.000	2.020	1.967
179.021	10.000	2.020	1.969
179.071	10.000	2.020	1.969
179.120	10.000	2.020	1.972
179.171	9.725	2.020	1.976
179.221	8.825	2.020	1.980
179.270	7.973	2.020	1.986
179.320	6.924	2.020	1.992
179.370	5.613	2.020	2.000
179.419	4.106	2.020	2.009
179.470	2.270	2.020	2.019
179.520	0.173	2.020	2.026
179.569	0.000	2.020	2.032
179.619	0.000	2.020	2.027
179.669	0.000	2.020	2.020
179.719	0.042	2.020	2.011
179.769	1.803	2.020	1.997
179.819	4.542	2.020	1.987
179.869	6.563	2.020	1.977
179.920	8.520	2.020	1.971
179.969	9.889	2.020	1.966
180.019	10.000	2.020	1.963
180.070	10.000	2.020	1.965
180.120	10.000	2.020	1.964
180.169	10.000	2.020	1.963
180.220	10.000	2.020	1.964
180.270	10.000	2.020	1.964
180.319	10.000	2.020	1.965
180.370	10.000	2.020	1.965
180.420	10.000	2.020	1.965
180.470	10.000	2.020	1.968
180.519	10.000	2.020	1.970
180.570	9.920	2.020	1.973
180.620	9.338	2.020	1.977
180.670	8.499	2.020	1.977
180.720	8.435	2.020	1.988
180.770	6.239	2.020	1.993
180.820	5.336	2.020	2.001
180.871	3.767	2.020	2.010
180.921	2.032	2.020	2.017
180.970	0.555	2.020	2.021
181.021	0.000	2.020	2.026
181.071	0.000	2.020	2.019
181.120	0.105	2.020	2.000
181.171	3.960	2.020	2.000
181.221	3.895	2.020	1.985
181.270	6.879	2.020	1.980
181.320	7.902	2.020	1.973
181.371	9.116	2.020	1.969
181.421	10.000	2.020	1.965
181.471	10.000	2.020	1.965
181.522	10.000	2.020	1.966
181.571	10.000	2.020	1.964
181.621	10.000	2.020	1.966
181.671	10.000	2.020	1.966
181.721	10.000	2.020	1.967
181.771	10.000	2.020	1.967
181.822	10.000	2.020	1.967
181.872	10.000	2.020	1.971
181.921	9.642	2.020	1.968
181.972	10.000	2.020	1.974
182.022	9.006	2.020	1.979
182.072	8.011	2.020	1.982
182.122	7.442	2.020	1.990
182.172	5.797	2.020	1.995
182.222	4.785	2.020	2.004
182.271	3.077	2.020	2.014
182.322	1.242	2.020	2.020
182.372	0.000	2.020	2.023
182.422	0.000	2.020	2.022
182.473	0.000	2.020	2.014
182.522	1.173	2.020	2.006
182.572	2.621	2.020	1.992
182.623	5.327	2.020	1.986
182.672	6.648	2.020	1.978
182.722	8.159	2.020	1.970
182.773	9.732	2.020	1.965
182.822	10.000	2.020	1.965
182.872	10.000	2.020	1.964
182.923	10.000	2.020	1.965
182.973	10.000	2.020	1.964
183.022	10.000	2.020	1.966
183.073	10.000	2.020	1.963
183.123	10.000	2.020	1.965
183.173	10.000	2.020	1.964
183.223	10.000	2.020	1.967
183.273	10.000	2.020	1.970
183.322	9.631	2.020	1.968
183.373	9.880	2.020	1.973
183.423	8.884	2.020	1.975
183.473	8.510	2.020	1.982
183.523	7.264	2.020	1.984
183.574	6.953	2.020	1.991
183.624	5.458	2.020	1.996
183.674	4.649	2.020	2.003
183.724	3.137	2.020	2.013
183.775	1.341	2.020	2.016
183.825	0.783	2.020	2.021
183.875	0.000	2.020	2.013
183.926	1.341	2.020	2.011
183.976	1.712	2.020	2.001
184.026	3.695	2.020	1.991
184.075	5.554	2.020	1.982
184.125	7.127	2.020	1.973
184.174	8.791	2.020	1.964
184.225	10.000	2.020	1.968
184.274	9.900	2.020	1.963
184.323	10.000	2.020	1.962
184.374	10.000	2.020	1.964
184.424	10.000	2.020	1.966
184.474	10.000	2.020	1.964
184.524	10.000	2.020	1.965
184.574	10.000	2.020	1.966
184.624	10.000	2.020	1.965
184.674	10.000	2.020	1.969
184.724	9.541	2.020	1.970
184.774	9.357	2.020	1.968
184.825	9.725	2.020	1.977
184.875	8.070	2.020	1.979
184.924	7.661	2.020	1.986
184.975	6.381	2.020	1.993
185.026	5.039	2.020	2.001
185.075	3.576	2.020	2.010
185.124	1.868	2.020	2.018
185.174	0.405	2.020	2.028
185.224	0.000	2.020	2.024
185.274	0.000	2.020	2.018
185.325	0.283	2.020	2.008
185.375	2.222	2.020	1.998
185.425	4.102	2.020	1.988
185.475	6.043	2.020	1.978
185.525	7.863	2.020	1.971
185.575	9.197	2.020	1.967
185.625	9.864	2.020	1.966
185.675	10.000	2.020	1.965
185.725	10.000	2.020	1.964
185.775	10.000	2.020	1.964
185.825	10.000	2.020	1.949
185.875	10.000	2.020	1.963
185.926	10.000	2.020	1.964
185.976	10.000	2.020	1.967
186.025	9.811	2.020	1.966
186.075	10.000	2.020	1.967
186.126	9.872	2.020	1.967
186.176	9.758	2.020	1.973
186.226	8.738	2.020	1.971
186.276	8.978	2.020	1.979
186.326	7.598	2.020	1.984
186.376	6.638	2.020	1.992
186.426	5.078	2.020	1.998
186.476	3.998	2.020	2.008
186.526	2.258	2.020	2.015
186.576	0.933	2.020	2.023
186.626	0.000	2.020	2.023
186.676	0.000	2.020	2.018
186.726	0.456	2.020	2.009
186.776	2.067	2.020	2.001
186.826	3.499	2.020	1.990
186.877	5.468	2.020	1.980
186.927	7.259	2.020	1.973
186.976	8.465	2.020	1.965
187.027	9.949	2.020	1.967
187.077	9.652	2.020	1.961
187.127	10.000	2.020	1.965
187.177	10.000	2.020	1.963
187.227	10.000	2.020	1.965
187.277	10.000	2.020	1.964
187.326	10.000	2.020	1.964
187.377	10.000	2.020	1.965
187.427	9.894	2.020	1.966
187.477	9.835	2.020	1.965
187.527	9.953	2.020	1.970
187.577	9.127	2.020	1.971
187.626	8.891	2.020	1.973
187.677	8.478	2.020	1.979
187.727	7.415	2.020	1.982
187.777	6.825	2.020	1.988
187.827	5.672	2.020	1.995
187.877	4.557	2.020	2.001
187.927	3.383	2.020	2.007
187.977	2.385	2.020	2.012
188.028	1.388	2.020	2.015
188.078	0.859	2.020	2.010
188.127	1.740	2.020	2.005
188.178	2.737	2.020	1.997
188.228	4.123	2.020	1.987
188.277	5.991	2.020	1.978
188.328	7.567	2.020	1.967
188.378	9.551	2.020	1.970
188.428	8.909	2.020	1.962
188.478	10.000	2.020	1.968
188.528	9.260	2.020	1.964
188.577	9.960	2.020	1.955
188.628	10.000	2.020	1.963
188.678	10.000	2.020	1.964
188.728	9.904	2.020	1.963
188.778	10.000	2.020	1.963
188.829	10.000	2.020	1.966
188.878	9.556	2.020	1.965
188.928	9.730	2.020	1.969
188.978	9.092	2.020	1.971
189.027	8.637	2.020	1.975
189.077	8.002	2.020	1.979
189.127	7.194	2.020	1.984
189.177	6.328	2.020	1.990
189.228	5.289	2.020	1.997
189.278	4.135	2.020	2.004
189.328	2.750	2.020	2.011
189.378	1.653	2.020	2.013
189.429	1.242	2.020	2.014
189.479	1.070	2.020	2.010
189.529	1.701	2.020	2.001
189.579	3.308	2.020	1.993
189.630	4.800	2.020	1.985
189.680	6.120	2.020	1.976
189.730	7.727	2.020	1.970
189.781	8.875	2.020	1.966
189.830	9.395	2.020	1.966
189.879	9.452	2.020	1.965
189.930	9.680	2.020	1.964
189.979	9.737	2.020	1.965
190.029	9.680	2.020	1.964
190.080	9.794	2.020	1.965
190.130	9.566	2.020	1.965
190.180	9.623	2.020	1.963
190.230	9.909	2.020	1.947
190.281	10.000	2.020	1.966
190.330	9.398	2.020	1.968
190.380	9.001	2.020	1.971
190.430	8.604	2.020	1.973
190.480	8.093	2.020	1.977
190.530	7.469	2.020	1.982
190.580	6.561	2.020	1.988
190.630	5.653	2.020	1.994
190.680	4.493	2.020	2.001
190.731	3.252	2.020	2.008
190.780	2.123	2.020	2.012
190.830	1.390	2.020	2.015
190.881	0.882	2.020	2.011
190.931	1.503	2.020	1.986
190.980	5.846	2.020	1.996
191.031	4.098	2.020	1.984
191.081	6.261	2.020	1.979
191.131	6.991	2.020	1.972
191.181	8.337	2.020	1.966
191.231	9.346	2.020	1.937
191.281	10.000	2.020	1.964
191.331	9.570	2.020	1.964
191.381	9.570	2.020	1.963
191.431	9.795	2.020	1.965
191.481	9.348	2.020	1.964
191.531	9.515	2.020	1.965
191.581	9.348	2.020	1.965
191.631	9.459	2.020	1.968
191.681	8.901	2.020	1.969
191.731	8.790	2.020	1.972
191.781	8.177	2.020	1.973
191.832	8.121	2.020	1.978
191.882	7.076	2.020	1.983
191.931	6.244	2.020	1.987
191.982	5.690	2.020	1.994
192.032	4.470	2.020	2.001
192.082	3.306	2.020	2.005
192.132	2.585	2.020	2.010
192.182	1.754	2.020	2.010
192.232	1.643	2.020	1.982
192.282	6.428	2.020	1.996
192.333	4.003	2.020	1.991
192.382	4.940	2.020	1.983
192.432	6.318	2.020	1.975
192.482	7.585	2.020	1.968
192.532	8.742	2.020	1.966
192.582	9.073	2.020	1.967
192.632	8.908	2.020	1.967
192.682	8.963	2.020	1.968
192.732	8.691	2.020	1.965
192.783	9.293	2.020	1.966
192.833	9.074	2.020	1.966
192.883	9.129	2.020	1.966
192.933	9.129	2.020	1.965
192.983	9.238	2.020	1.969
193.033	8.636	2.020	1.968
193.083	8.691	2.020	1.973
193.133	7.876	2.020	1.974
193.183	7.604	2.020	1.977
193.233	7.114	2.020	1.963
193.284	9.565	2.020	1.987
193.333	5.535	2.020	1.988
193.383	5.317	2.020	1.994
193.434	4.391	2.020	2.002
193.483	2.975	2.020	2.010
193.533	1.604	2.020	2.007
193.584	2.146	2.020	2.008
193.633	2.037	2.020	2.004
193.683	2.579	2.020	1.985
193.734	5.772	2.020	1.989
193.784	5.177	2.020	1.977
193.833	7.180	2.020	1.971
193.884	8.100	2.020	1.966
193.934	8.912	2.020	1.968
193.984	8.643	2.020	1.966
194.033	8.858	2.020	1.966
194.084	8.912	2.020	1.968
194.134	8.535	2.020	1.968
194.184	8.589	2.020	1.966
194.234	8.858	2.020	1.946
194.283	10.000	2.020	1.966
194.333	8.804	2.020	1.964
194.384	9.125	2.020	1.969
194.434	8.377	2.020	1.968
194.484	8.484	2.020	1.970
194.534	8.270	2.020	1.973
194.584	7.735	2.020	1.977
194.634	7.040	2.020	1.979
194.685	6.665	2.020	1.983
194.734	6.093	2.020	1.988
194.784	5.190	2.020	1.993
194.835	4.339	2.020	1.996
194.884	3.914	2.020	2.000
194.934	3.329	2.020	2.003
194.985	2.745	2.020	2.003
195.035	2.745	2.020	1.998
195.085	3.595	2.020	1.992
195.135	4.524	2.020	1.985
195.185	5.686	2.020	1.978
195.234	6.795	2.020	1.971
195.284	7.958	2.020	1.965
195.335	8.856	2.020	1.968
195.385	8.433	2.020	1.968
195.435	8.433	2.020	1.967
195.486	8.539	2.020	1.968
195.535	8.486	2.020	1.967
195.585	8.591	2.020	1.968
195.635	8.433	2.020	1.968
195.685	8.433	2.020	1.967
195.735	8.591	2.020	1.969
195.785	8.276	2.020	1.970
195.836	8.118	2.020	1.971
195.886	7.961	2.020	1.971
195.935	7.908	2.020	1.972
195.986	7.703	2.020	1.973
196.036	7.494	2.020	1.976
196.085	6.972	2.020	1.977
196.136	6.816	2.020	1.983
196.186	5.981	2.020	1.981
196.236	6.190	2.020	1.983
196.286	5.981	2.020	1.980
196.336	6.451	2.020	1.981
196.385	6.203	2.020	1.986
196.436	5.373	2.020	1.984
196.486	5.684	2.020	1.985
196.536	5.633	2.020	1.983
196.587	5.944	2.020	1.980
196.637	6.358	2.020	1.981
196.687	6.255	2.020	1.978
196.737	6.670	2.020	1.973
196.788	7.349	2.020	1.973
196.838	7.400	2.020	1.973
196.888	7.503	2.020	1.969
196.939	8.122	2.020	1.967
196.989	8.379	2.020	1.969
197.039	8.122	2.020	1.969
197.089	8.122	2.020	1.969
197.140	8.122	2.020	1.970
197.190	7.917	2.020	1.967
197.240	8.326	2.020	1.958
197.290	9.657	2.020	1.955
197.341	10.000	2.020	1.957
197.391	9.913	2.020	1.967
197.441	8.326	2.020	1.974
197.492	7.149	2.020	1.977
197.542	6.739	2.020	1.981
197.592	6.125	2.020	1.986
197.642	5.306	2.020	1.985
197.692	5.562	2.020	1.991
197.742	4.487	2.020	1.993
197.792	4.180	2.020	1.988
197.842	5.050	2.020	1.992
197.892	4.435	2.020	1.989
197.942	4.896	2.020	1.987
197.992	5.203	2.020	1.987
198.043	5.255	2.020	1.979
198.093	6.483	2.020	1.975
198.143	7.098	2.020	1.969
198.194	8.019	2.020	1.968
198.244	8.173	2.020	1.969
198.293	8.070	2.020	1.967
198.344	8.377	2.020	1.964
198.394	8.787	2.020	1.965
198.444	8.685	2.020	1.967
198.494	8.275	2.020	1.968
198.544	8.121	2.020	1.969
198.593	8.019	2.020	1.963
198.643	8.889	2.020	1.969
198.694	8.019	2.020	1.971
198.744	7.712	2.020	1.972
198.794	7.507	2.020	1.973
198.845	7.354	2.020	1.975
198.895	7.098	2.020	1.979
198.944	6.432	2.020	1.977
198.995	6.739	2.020	1.980
199.045	6.227	2.020	1.985
199.094	5.459	2.020	1.984
199.145	5.664	2.020	1.982
199.195	5.971	2.020	1.986
199.245	5.408	2.020	1.987
199.295	5.152	2.020	1.985
199.345	5.562	2.020	1.983
199.394	5.869	2.020	1.980
199.444	6.227	2.020	1.975
199.494	6.995	2.020	1.978
199.544	6.637	2.020	1.974
199.595	7.251	2.020	1.973
199.645	7.302	2.020	1.972
199.694	7.507	2.020	1.971
199.744	7.763	2.020	1.970
199.795	7.917	2.020	1.967
199.844	8.326	2.020	1.966
199.894	8.429	2.020	1.969
199.945	7.968	2.020	1.966
199.994	8.429	2.020	1.969
200.044	7.968	2.020	1.972
200.095	7.610	2.020	1.964
200.144	8.787	2.020	1.970
200.194	7.866	2.020	1.973
200.245	7.302	2.020	1.967
200.294	8.377	2.020	1.973
200.344	7.456	2.020	1.963
200.394	8.992	2.020	1.979
200.443	6.381	2.020	1.976
200.493	6.944	2.020	1.978
200.544	6.534	2.020	1.973
200.594	7.405	2.020	1.980
200.644	6.278	2.020	1.985
200.694	5.511	2.020	1.991
200.743	4.589	2.020	1.989
200.793	4.794	2.020	1.985
200.844	5.459	2.020	1.989
200.893	4.845	2.020	1.983
200.943	5.869	2.020	1.984
200.994	5.613	2.020	1.981
201.043	6.176	2.020	1.976
201.093	6.944	2.020	1.973
201.144	7.405	2.020	1.972
201.194	7.610	2.020	1.966
201.244	8.480	2.020	1.969
201.294	8.019	2.020	1.966
201.344	8.480	2.020	1.965
201.394	8.582	2.020	1.964
201.444	8.787	2.020	1.968
201.493	8.121	2.020	1.967
201.543	8.377	2.020	1.968
201.594	8.121	2.020	1.971
201.643	7.712	2.020	1.971
201.693	7.661	2.020	1.973
201.744	7.456	2.020	1.975
201.793	6.995	2.020	1.977
201.843	6.790	2.020	1.975
201.894	6.995	2.020	1.982
201.943	5.920	2.020	1.982
201.993	5.920	2.020	1.985
202.044	5.562	2.020	1.986
202.094	5.306	2.020	1.987
202.143	5.203	2.020	1.984
202.194	5.628	2.020	1.985
202.244	5.425	2.020	1.983
202.293	5.781	2.020	1.979
202.344	6.391	2.020	1.980
202.394	6.289	2.020	1.976
202.444	6.798	2.020	1.973
202.494	7.307	2.020	1.971
202.545	7.663	2.020	1.970
202.594	7.866	2.020	1.969
202.644	7.917	2.020	1.967
202.695	8.222	2.020	1.967
202.745	8.271	2.020	1.969
202.795	7.967	2.020	1.967
202.846	8.271	2.020	1.955
202.896	10.000	2.020	1.966
202.946	8.372	2.020	1.959
202.996	9.383	2.020	1.956
203.046	9.939	2.020	1.957
203.097	9.838	2.020	1.966
203.146	8.321	2.020	1.972
203.196	7.412	2.020	1.978
203.245	6.451	2.020	1.981
203.295	5.996	2.020	1.982
203.345	5.895	2.020	1.988
203.394	5.036	2.020	1.990
203.444	4.602	2.020	1.995
203.494	3.899	2.020	1.994
203.543	3.949	2.020	1.993
203.594	4.200	2.020	1.985
203.643	5.355	2.020	1.989
203.693	4.672	2.020	1.982
203.744	5.819	2.020	1.978
203.794	6.418	2.020	1.976
203.844	6.717	2.020	1.970
203.894	7.615	2.020	1.966
203.944	8.214	2.020	1.968
203.993	7.964	2.020	1.964
204.044	8.563	2.020	1.966
204.094	8.214	2.020	1.967
204.144	8.164	2.020	1.966
204.194	8.214	2.020	1.967
204.245	8.164	2.020	1.966
204.294	8.264	2.020	1.968
204.344	7.915	2.020	1.969
204.394	7.765	2.020	1.970
204.444	7.715	2.020	1.971
204.494	7.565	2.020	1.971
204.545	7.515	2.020	1.973
204.595	7.116	2.020	1.974
204.644	7.017	2.020	1.973
204.695	7.266	2.020	1.978
204.745	6.468	2.020	1.978
204.795	6.468	2.020	1.979
204.845	6.268	2.020	1.981
204.895	5.919	2.020	1.982
204.945	5.869	2.020	1.980
204.995	6.069	2.020	1.982
205.045	5.869	2.020	1.980
205.095	6.069	2.020	1.980
205.145	6.069	2.020	1.978
205.195	6.368	2.020	1.977
205.245	6.518	2.020	1.976
205.295	6.667	2.020	1.973
205.346	7.116	2.020	1.974
205.396	7.017	2.020	1.973
205.445	7.116	2.020	1.970
205.496	7.665	2.020	1.972
205.546	7.316	2.020	1.970
205.596	7.615	2.020	1.973
205.646	7.266	2.020	1.971
205.696	7.565	2.020	1.971
205.746	7.466	2.020	1.972
205.796	7.366	2.020	1.971
205.846	7.466	2.020	1.973
205.896	7.266	2.020	1.973
205.946	7.266	2.020	1.972
205.997	7.366	2.020	1.973
206.047	7.116	2.020	1.973
206.096	7.266	2.020	1.973
206.147	7.216	2.020	1.973
206.197	7.166	2.020	1.971
206.247	7.516	2.020	1.976
206.298	6.624	2.020	1.974
206.348	6.971	2.020	1.976
206.398	6.723	2.020	1.972
206.448	7.318	2.020	1.973
206.498	7.219	2.020	1.971
206.549	7.466	2.020	1.973
206.599	7.219	2.020	1.973
206.649	7.070	2.020	1.973
206.700	7.219	2.020	1.966
206.750	8.160	2.020	1.965
206.800	8.408	2.020	1.958
206.851	9.498	2.020	1.963
206.901	8.705	2.020	1.966
206.951	8.259	2.020	1.973
207.001	7.070	2.020	1.959
207.051	9.251	2.020	1.968
207.101	7.912	2.020	1.971
207.151	7.466	2.020	1.968
207.201	7.962	2.020	1.978
207.250	6.425	2.020	1.979
207.300	6.178	2.020	1.976
207.351	6.723	2.020	1.985
207.400	5.385	2.020	1.986
207.450	5.186	2.020	1.982
207.501	5.781	2.020	1.977
207.551	6.525	2.020	1.986
207.600	5.236	2.020	1.983
207.651	5.682	2.020	1.980
207.701	6.128	2.020	1.981
207.750	5.930	2.020	1.980
207.801	6.029	2.020	1.975
207.851	6.872	2.020	1.972
207.901	7.367	2.020	1.973
207.951	7.119	2.020	1.972
208.001	7.268	2.020	1.970
208.051	7.615	2.020	1.967
208.101	8.111	2.020	1.970
208.151	7.615	2.020	1.971
208.201	7.516	2.020	1.966
208.251	8.210	2.020	1.961
208.302	8.953	2.020	1.970
208.351	7.615	2.020	1.970
208.401	7.665	2.020	1.969
208.452	7.764	2.020	1.973
208.501	7.219	2.020	1.972
208.550	7.318	2.020	1.975
208.601	6.822	2.020	1.974
208.651	6.971	2.020	1.979
208.701	6.227	2.020	1.979
208.752	6.178	2.020	1.980
208.802	6.128	2.020	1.976
208.852	6.723	2.020	1.971
208.902	7.417	2.020	1.968
208.953	7.962	2.020	1.972
209.003	7.367	2.020	1.977
209.053	6.525	2.020	1.978
209.103	6.425	2.020	1.967
209.153	8.012	2.020	1.975
209.202	6.772	2.020	1.979
209.252	6.277	2.020	1.978
209.301	6.425	2.020	1.976
209.351	6.624	2.020	1.978
209.402	6.376	2.020	1.980
209.451	6.079	2.020	1.976
209.501	6.723	2.020	1.978
209.552	6.376	2.020	1.978
209.601	6.326	2.020	1.976
209.651	6.624	2.020	1.976
209.701	6.624	2.020	1.976
209.750	6.624	2.020	1.976
209.800	6.723	2.020	1.977
209.850	6.475	2.020	1.976
209.900	6.673	2.020	1.974
209.950	7.020	2.020	1.976
210.000	6.723	2.020	1.975
210.050	6.772	2.020	1.975
210.100	6.872	2.020	1.976
210.150	6.723	2.020	1.975
210.200	6.872	2.020	1.974
210.250	7.020	2.020	1.975
210.300	6.772	2.020	1.977
210.350	6.525	2.020	1.974
210.401	7.020	2.020	1.975
210.451	6.772	2.020	1.977
210.500	6.525	2.020	1.975
210.550	6.822	2.020	1.974
210.601	6.971	2.020	1.976
210.651	6.723	2.020	1.973
210.700	7.119	2.020	1.976
210.751	6.723	2.020	1.976
210.801	6.723	2.020	1.975
210.851	6.772	2.020	1.974
210.901	6.971	2.020	1.975
210.951	6.822	2.020	1.974
211.001	6.971	2.020	1.974
211.051	6.971	2.020	1.975
211.101	6.822	2.020	1.975
211.151	6.822	2.020	1.976
211.201	6.723	2.020	1.975
211.252	6.822	2.020	1.976
211.302	6.624	2.020	1.976
211.352	6.723	2.020	1.977
211.403	6.525	2.020	1.976
211.453	6.624	2.020	1.975
211.503	6.772	2.020	1.975
211.553	6.872	2.020	1.973
211.604	7.070	2.020	1.976
211.653	6.723	2.020	1.975
211.703	6.822	2.020	1.974
211.754	6.921	2.020	1.975
211.803	6.822	2.020	1.976
211.853	6.624	2.020	1.973
211.904	7.070	2.020	1.975
211.954	6.872	2.020	1.976
212.004	6.673	2.020	1.973
212.054	7.119	2.020	1.974
212.104	6.971	2.020	1.976
212.153	6.624	2.020	1.972
212.204	7.268	2.020	1.975
212.254	6.772	2.020	1.975
212.303	6.872	2.020	1.974
212.353	6.921	2.020	1.976
212.403	6.723	2.020	1.975
212.452	6.822	2.020	1.976
212.503	6.624	2.020	1.976
212.553	6.673	2.020	1.976
212.603	6.624	2.020	1.974
212.653	7.020	2.020	1.975
212.704	6.822	2.020	1.978
212.753	6.425	2.020	1.973
212.803	7.119	2.020	1.976
212.853	6.624	2.020	1.976
212.902	6.723	2.020	1.976
212.953	6.673	2.020	1.976
213.003	6.624	2.020	1.975
213.053	6.822	2.020	1.975
213.103	6.822	2.020	1.973
213.154	7.119	2.020	1.976
213.203	6.723	2.020	1.974
213.253	6.921	2.020	1.973
213.304	7.219	2.020	1.974
213.354	6.971	2.020	1.975
213.404	6.772	2.020	1.973
213.454	7.169	2.020	1.975
213.503	6.772	2.020	1.976
213.553	6.723	2.020	1.974
213.604	6.971	2.020	1.975
213.654	6.872	2.020	1.975
213.704	6.872	2.020	1.974
213.754	7.020	2.020	1.975
213.804	6.872	2.020	1.977
213.853	6.574	2.020	1.973
213.904	7.169	2.020	1.975
213.954	6.822	2.020	1.976
214.003	6.624	2.020	1.973
214.054	7.070	2.020	1.974
214.104	6.921	2.020	1.976
214.154	6.673	2.020	1.973
214.204	7.119	2.020	1.976
214.255	6.723	2.020	1.976
214.304	6.723	2.020	1.975
214.354	6.772	2.020	1.976
214.405	6.673	2.020	1.976
214.454	6.723	2.020	1.976
214.504	6.673	2.020	1.975
214.555	6.772	2.020	1.975
214.605	6.872	2.020	1.976
214.655	6.723	2.020	1.974
214.705	6.971	2.020	1.976
214.755	6.673	2.020	1.975
214.805	6.772	2.020	1.973
214.855	7.119	2.020	1.976
214.905	6.624	2.020	1.976
214.955	6.723	2.020	1.976
215.005	6.723	2.020	1.975
215.055	6.822	2.020	1.975
215.105	6.822	2.020	1.975
215.155	6.822	2.020	1.974
215.206	7.020	2.020	1.974
215.256	6.921	2.020	1.976
215.305	6.624	2.020	1.971
215.356	7.417	2.020	1.976
215.406	6.673	2.020	1.975
215.456	6.822	2.020	1.975
215.506	6.772	2.020	1.975
215.556	6.822	2.020	1.975
215.606	6.872	2.020	1.974
215.656	7.020	2.020	1.974
215.706	6.921	2.020	1.976
215.756	6.673	2.020	1.975
215.806	6.822	2.020	1.975
215.856	6.822	2.020	1.974
215.906	6.921	2.020	1.974
215.956	6.921	2.020	1.974
216.006	7.020	2.020	1.975
216.056	6.822	2.020	1.975
216.106	6.772	2.020	1.973
216.157	7.169	2.020	1.977
216.206	6.475	2.020	1.975
216.256	6.872	2.020	1.973
216.307	7.169	2.020	1.974
216.357	6.971	2.020	1.976
216.406	6.723	2.020	1.974
216.457	6.971	2.020	1.975
216.507	6.872	2.020	1.975
216.557	6.822	2.020	1.971
216.607	7.417	2.020	1.976
216.657	6.723	2.020	1.976
216.707	6.723	2.020	1.974
216.757	7.020	2.020	1.973
216.807	7.219	2.020	1.975
216.857	6.772	2.020	1.974
216.907	6.921	2.020	1.974
216.958	7.020	2.020	1.974
217.008	6.921	2.020	1.976
217.057	6.624	2.020	1.974
217.108	6.921	2.020	1.974
217.157	6.971	2.020	1.973
217.207	7.169	2.020	1.974
217.258	7.020	2.020	1.974
217.308	6.971	2.020	1.975
217.357	6.822	2.020	1.970
217.408	7.665	2.020	1.974
217.458	6.971	2.020	1.953
217.508	10.000	2.020	1.973
217.557	7.219	2.020	1.968
217.608	7.863	2.020	1.976
217.658	6.624	2.020	1.974
217.707	6.971	2.020	1.975
217.758	6.872	2.020	1.973
217.807	7.070	2.020	1.975
217.858	6.822	2.020	1.975
217.908	6.772	2.020	1.976
217.957	6.673	2.020	1.972
218.007	7.367	2.020	1.975
218.058	6.772	2.020	1.975
218.108	6.822	2.020	1.976
218.158	6.723	2.020	1.966
218.208	8.160	2.020	1.976
218.258	6.624	2.020	1.974
218.308	6.971	2.020	1.976
218.358	6.673	2.020	1.976
218.409	6.624	2.020	1.976
218.459	6.723	2.020	1.976
218.509	6.723	2.020	1.976
218.559	6.673	2.020	1.977
218.608	6.475	2.020	1.975
218.658	6.872	2.020	1.975
218.709	6.872	2.020	1.975
218.758	6.772	2.020	1.973
218.808	7.070	2.020	1.975
218.859	6.872	2.020	1.974
218.909	6.971	2.020	1.971
218.959	7.516	2.020	1.975
219.010	6.772	2.020	1.976
219.060	6.723	2.020	1.975
219.109	6.822	2.020	1.976
219.159	6.673	2.020	1.976
219.210	6.723	2.020	1.976
219.260	6.723	2.020	1.976
219.310	6.723	2.020	1.976
219.360	6.673	2.020	1.976
219.410	6.673	2.020	1.976
219.460	6.723	2.020	1.975
219.511	6.822	2.020	1.976
219.561	6.723	2.020	1.973
